TOTAL_TIME,0m7s
TOTAL_FRAMES,449
SELECTED_FRAMES,449
NO_OF_JOINTS,7
FREQUENCY,64.0
DESCRIPTION,east
TIME_STAMP,Jul 17, 2009

Time,Frame,Pelvis_accelX_37,Pelvis_accelY_37,Pelvis_accelZ_37,RFEP_accelX_30,RFEP_accelY_30,RFEP_accelZ_30,RFEO_accelX_55,RFEO_accelY_55,RFEO_accelZ_55,RTIO_accelX_44,RTIO_accelY_44,RTIO_accelZ_44,LFEP_accelX_25,LFEP_accelY_25,LFEP_accelZ_25,LFEO_accelX_28,LFEO_accelY_28,LFEO_accelZ_28,LTIO_accelX_70,LTIO_accelY_70,LTIO_accelZ_70
0.0,0,0.0,0.0,0.0,0.0,0.0,0.0,0.0,0.0,0.0,0.0,0.0,0.0,0.0,0.0,0.0,0.0,0.0,0.0,0.0,0.0,0.0
0.015625,1,0.0,0.0,0.0,0.0,0.0,0.0,0.0,0.0,0.0,0.0,0.0,0.0,0.0,0.0,0.0,0.0,0.0,0.0,0.0,0.0,0.0
0.03125,2,0.0,0.0,0.0,0.0,0.0,0.0,0.0,0.0,0.0,0.0,0.0,0.0,0.0,0.0,0.0,0.0,0.0,0.0,0.0,0.0,0.0
0.046875,3,-0.9008789,-0.39111328,-0.30877686,-0.5463867,-0.074645996,0.25476074,-0.6598511,0.18115234,-0.14215088,-0.7618408,-0.21502686,-0.289917,-1.072876,0.057434082,-0.52697754,-1.0806885,-0.3583374,-0.121398926,-0.4576416,0.16778564,0.9081421
0.0625,4,-0.88482666,-0.4439087,-0.2808838,-0.59124756,-0.28900146,0.17889404,-0.66986084,0.20031738,-0.16497803,-0.6154785,-0.5335083,-0.22106934,-1.0263062,-0.019714355,-0.40771484,-1.0756226,-0.4342041,-0.14508057,-0.44647217,0.18066406,0.9310913
0.078125,5,-0.89282227,-0.4605713,-0.3805542,-0.6390991,-0.30755615,0.10986328,-0.7277832,0.32250977,-0.23638916,-0.5322876,-0.6932373,-0.09033203,-1.0496216,-0.2322998,-0.23388672,-1.0796509,-0.315979,0.01373291,-0.45458984,0.18664551,0.9111328
0.09375,6,-0.8447876,-0.5153198,-0.41638184,-0.661499,-0.04333496,0.011291504,-0.80462646,0.36291504,-0.2701416,-0.53430176,-0.38568115,0.051452637,-1.0354004,-0.45880127,-0.029785156,-1.1132812,-0.1071167,0.19421387,-0.48205566,0.24414062,0.87323
0.109375,7,-0.8718262,-0.48010254,-0.3685913,-0.6859741,0.2111206,-0.005432129,-0.87750244,0.39923096,-0.25823975,-0.62854004,0.08850098,0.14526367,-0.98480225,-0.37176514,-0.029785156,-0.99816895,0.030822754,0.1774292,-0.49121094,0.32946777,0.82128906
0.125,8,-0.8998413,-0.41357422,-0.33270264,-0.69415283,0.4107666,0.06060791,-0.86950684,0.4537964,-0.21655273,-0.6956787,0.38708496,0.15325928,-1.06073,-0.08300781,-0.038879395,-0.9259033,-0.036193848,0.10644531,-0.5227051,0.3215332,0.8153076
0.140625,9,-0.8447876,-0.31188965,-0.27093506,-0.72265625,0.43426514,0.14733887,-0.88952637,0.36291504,-0.16894531,-0.7407837,0.5835571,0.18322754,-1.0212402,0.17315674,-0.089416504,-0.9737549,-0.27264404,-0.10266113,-0.54711914,0.25506592,0.8253174
0.15625,10,-0.86383057,-0.2962036,-0.12939453,1.9135742,1.2093506,1.996582,-1.3157959,0.55474854,-1.9746094,1.3319092,0.7125244,0.9927368,-1.0212402,0.10687256,-0.12579346,-1.0155029,-0.31402588,-0.10266113,-0.5796509,0.1687622,0.86920166
0.171875,11,-1.0,-0.21014404,0.047973633,-1.7984619,1.0057983,0.62939453,-1.8579102,0.49621582,0.83343506,-0.08728027,0.39605713,1.5497437,-1.0252686,0.059448242,-0.24804688,-1.0541992,-0.17901611,-0.0099487305,-0.58673096,0.2421875,0.8792114
0.1875,12,-1.2312622,-0.006652832,-0.059631348,-1.1953735,0.35986328,0.1305542,-1.4315796,0.30230713,0.24890137,-0.10235596,-0.41741943,1.0506592,-1.1133423,0.11480713,-0.21569824,-1.0959473,-0.09527588,0.03741455,-0.598938,0.17474365,0.913147
0.203125,13,-1.5336914,0.20861816,-0.29779053,-0.9956665,0.016357422,0.107910156,-0.97332764,0.13873291,0.37591553,0.12921143,-0.78845215,0.7112427,-1.2358398,0.22955322,-0.10559082,-1.1967773,-0.21746826,0.04724121,-0.5857544,0.28778076,0.8592529
0.21875,14,-1.6118164,0.4512329,-0.33270264,-0.88360596,-0.05114746,0.1552124,-0.81359863,0.10040283,0.36798096,0.22143555,-0.62677,0.64434814,-1.3249512,0.11480713,0.035888672,-1.2334595,-0.33569336,0.0847168,-0.65789795,0.25805664,0.97802734
0.234375,15,-1.3304443,0.26727295,-0.053649902,-0.91619873,-0.1685791,0.096069336,-0.84155273,-0.16217041,0.30743408,0.17327881,-0.3876953,0.6873169,-1.25,-0.011779785,0.09954834,-1.2385254,-0.3829956,0.18334961,-0.6609497,0.26501465,0.86120605
0.25,16,-1.0930786,-0.14361572,0.10083008,-1.0405273,-0.23223877,0.05859375,-1.1031494,-0.24291992,0.27172852,0.026977539,-0.18035889,0.82702637,-1.1690063,-0.08300781,0.3501587,-1.1937256,-0.30908203,0.2711792,-0.7229614,0.26000977,0.8831787
0.265625,17,-1.0560303,-0.4605713,0.15161133,-1.0812378,-0.14117432,0.038879395,-1.0332642,-0.14196777,0.2756958,0.039978027,-0.27557373,0.7531738,-1.1558838,-0.1541748,0.5027466,-1.333252,-0.26867676,0.32147217,-0.8286743,0.46533203,1.159668
0.28125,18,-1.085083,-0.65618896,0.06793213,-1.0445557,-0.082458496,-0.008422852,-0.9783325,0.047851562,0.27764893,0.12420654,-0.4640503,0.74017334,-1.2338257,-0.18585205,0.62402344,-1.5064087,-0.18591309,0.14587402,-0.8927002,0.5090332,1.0688477
0.296875,19,-1.0961304,-0.5857544,0.08782959,-1.0507202,-0.14312744,-0.06561279,-1.0532227,-0.008666992,0.20422363,0.059020996,-0.56921387,0.7501831,-1.2277222,0.07330322,0.1359253,-1.5237427,-0.059814453,0.29382324,-1.091919,0.48620605,1.1247559
0.3125,20,-1.0861206,-0.36273193,0.13269043,-0.9814453,-0.082458496,-0.057678223,-0.98931885,-0.020812988,0.21710205,0.08911133,-0.4015503,0.71624756,-1.2965698,0.24041748,-0.018676758,-1.333252,0.24365234,-0.11450195,-1.0004272,0.31958008,1.0768433
0.328125,21,-1.0370483,-0.18273926,0.10876465,-0.99975586,0.046691895,0.052734375,-0.91345215,-0.004638672,0.33721924,0.10614014,-0.230896,0.6843262,-1.3856812,0.3106079,-0.16723633,-1.3251343,0.3657837,-0.4262085,-1.0756226,0.40289307,1.2145996
0.34375,22,-0.93292236,-0.037963867,0.08984375,-0.9793701,0.031066895,0.101989746,-0.88848877,0.080200195,0.38684082,0.15026855,-0.23388672,0.6673584,-1.3563232,0.33636475,-0.6765137,-1.2578735,-0.11895752,-0.53271484,-1.2341919,0.5298462,1.2705078
0.359375,23,-0.77368164,0.020751953,0.09185791,-0.9671631,-0.049194336,-0.0025024414,-0.9423828,-6.1035156E-4,0.24194336,0.099121094,-0.38867188,0.6623535,-1.4464111,0.06732178,-0.6522827,-0.90753174,-0.50512695,-0.87597656,-0.69244385,0.2937622,0.3501587
0.375,24,-0.647522,-0.022277832,0.08984375,-0.942688,0.012451172,0.011291504,-0.92144775,0.043823242,0.27764893,0.09814453,-0.32714844,0.6623535,-1.2945557,-0.2886963,-0.5663452,-0.47265625,-0.41156006,-1.7962646,1.918396,1.9938965,-1.9729004
0.390625,25,-0.6535034,-0.061401367,0.1227417,-0.99157715,0.042785645,0.10595703,-0.94940186,0.025634766,0.35705566,0.10412598,-0.2944336,0.6832886,-1.3046875,-0.5794678,-0.49865723,-1.069458,-0.43023682,-1.171875,-1.1295166,1.8242798,1.0638428
0.40625,26,-0.77770996,-0.06530762,0.032043457,-1.036438,-0.078552246,0.06451416,-1.0012817,-0.0692749,0.2578125,-0.0040893555,-0.56225586,0.93182373,-1.3654175,-0.3045044,-0.43701172,-0.71502686,-0.040100098,-0.3828125,0.39508057,0.63098145,0.22540283
0.421875,27,-1.0310059,-0.053588867,-0.14935303,-0.989563,-0.0022583008,-0.014343262,-1.0012817,0.039794922,0.25585938,0.044006348,-0.33605957,0.6553345,-1.2591553,-0.07507324,-0.5128174,-0.69262695,-0.016479492,-0.38476562,-0.1517334,-0.059387207,0.7614136
0.4375,28,-1.2563477,-0.026184082,-0.32073975,-0.99157715,0.08288574,0.026062012,-0.9473877,0.084228516,0.2121582,0.032958984,-0.24578857,0.68029785,-1.2267456,-0.06317139,-0.2682495,-0.5969238,-0.22338867,-0.868103,-0.5227051,-0.3083496,1.2415161
0.453125,29,-1.2332764,0.005126953,-0.27288818,-0.9875488,0.028076172,-0.045837402,-0.97332764,0.05596924,0.19232178,0.041015625,-0.307312,0.6912842,-1.2075195,-0.14031982,-0.17425537,-0.46453857,-0.5918579,-0.8779297,-0.807312,-0.078186035,1.3723145
0.46875,30,-1.013977,0.012939453,-0.057617188,-1.0038452,0.034973145,-0.030090332,-0.9753418,0.043823242,0.2230835,0.05303955,-0.26367188,0.6693115,-1.085022,-0.28668213,-0.19952393,-0.3789673,-0.62731934,-0.7852173,-0.60302734,0.13702393,1.1207886
0.484375,31,-0.80474854,-0.010559082,0.029052734,-0.99261475,0.054504395,-0.034057617,-0.97332764,0.0034179688,0.19628906,0.039001465,-0.25079346,0.6843262,-0.98883057,-0.40734863,-0.22680664,-0.46148682,-0.4736328,-0.66290283,-0.45458984,0.18463135,0.90911865
0.5,32,-0.72961426,-0.055541992,-0.00982666,-0.9793701,0.03692627,-0.06561279,-0.94641113,0.020629883,0.1774292,0.041992188,-0.2874756,0.6743164,-0.93621826,-0.45483398,-0.33190918,-0.40441895,-0.5405884,-0.6639404,-0.36010742,0.03289795,0.84924316
0.515625,33,-0.8618164,-0.061401367,-0.10748291,-0.9834595,0.051574707,-0.045837402,-0.99334717,0.05999756,0.16455078,0.019958496,-0.27062988,0.6703491,-0.86535645,-0.38360596,-0.31781006,-0.31481934,-0.57214355,-0.63531494,-0.39160156,-0.01171875,0.81030273
0.53125,34,-1.0050049,-0.06530762,-0.20214844,-0.9834595,0.08581543,-0.059692383,-0.9673462,0.06402588,0.18041992,0.031982422,-0.23291016,0.6613159,-0.7297363,-0.24121094,-0.32891846,-0.40338135,-0.5405884,-0.7260742,-0.47088623,-0.06732178,0.91015625
0.546875,35,-0.9989624,-0.049682617,-0.2420044,-0.960022,0.07409668,-0.026123047,-0.94140625,0.045837402,0.18041992,0.027954102,-0.28149414,0.67230225,-0.640625,-0.14630127,-0.41479492,-0.33111572,-0.50909424,-0.61950684,-0.7178955,0.0021362305,1.0009766
0.5625,36,-0.9989624,-0.049682617,-0.2420044,-0.9559326,0.07800293,-0.036010742,-0.96539307,0.10845947,0.18634033,0.025939941,-0.25769043,0.6333618,-0.52423096,-0.06317139,-0.44207764,-0.33111572,-0.4066162,-0.6767578,-0.9973755,1.8310547E-4,1.1327515
0.578125,37,-0.8317871,-0.022277832,-0.1772461,-0.9324951,0.08190918,-0.06854248,-0.9593506,0.09631348,0.17645264,0.05505371,-0.25671387,0.67529297,-0.47058105,-0.06121826,-0.4935913,-0.41259766,-0.38690186,-0.7290039,-1.1376343,-0.10498047,1.2705078
0.59375,38,-0.8317871,-0.022277832,-0.1772461,-0.9406738,0.08288574,-0.053771973,-0.97735596,0.09631348,0.16851807,0.027954102,-0.26464844,0.5834961,-0.43615723,-0.13043213,-0.44207764,-0.58673096,-0.40264893,-0.6530762,-1.3907471,-0.22796631,1.3753052
0.609375,39,-0.8317871,-0.022277832,-0.1772461,-0.9263916,0.050598145,-0.053771973,-0.94537354,0.080200195,0.17047119,0.018920898,-0.265625,0.6433716,-0.366333,-0.07110596,-0.42993164,-0.73339844,-0.3947754,-0.54852295,-1.6651611,-0.1149292,1.3723145
0.625,40,-0.8317871,-0.022277832,-0.1772461,-0.93865967,0.011474609,-0.020263672,-0.96435547,0.036743164,0.19232178,0.018920898,-0.25671387,0.6463623,-0.3380127,-0.11859131,-0.33294678,-0.82299805,-0.47753906,-0.491333,-1.854187,-0.04748535,1.3723145
0.640625,41,-0.8317871,-0.022277832,-0.1772461,-0.9569702,0.0036621094,0.011291504,-0.96936035,0.019592285,0.17047119,0.021972656,-0.2765503,0.6234131,-0.4078369,-0.1739502,-0.10455322,-0.99108887,-0.3435669,-0.4537964,1.9506226,-0.3112793,1.3203735
0.65625,42,-0.8317871,-0.022277832,-0.1772461,-0.9875488,0.035949707,0.044799805,-0.98132324,0.043823242,0.21020508,-0.003112793,-0.25872803,0.6553345,-0.43011475,-0.23034668,0.24407959,-1.1132812,-0.3395996,-0.06713867,1.918396,-0.5671997,0.9890137
0.671875,43,-0.8317871,-0.022277832,-0.1772461,-1.0119629,-0.027648926,0.107910156,-0.9953003,0.07208252,0.24987793,0.010925293,-0.25079346,0.65338135,-0.5839844,-0.08300781,0.47955322,-1.192688,-0.055908203,0.1340332,1.918396,-0.5076904,0.35516357
0.6875,44,-0.8327637,-0.018371582,-0.25897217,-1.036438,0.064331055,0.09802246,-1.017273,0.043823242,0.2538452,0.026977539,-0.35095215,0.68829346,-0.9949341,0.32843018,0.86553955,-1.022644,0.06530762,0.07489014,1.918396,-0.17443848,-0.29766846
0.703125,45,-0.8327637,-0.018371582,-0.25897217,-0.9793701,0.089782715,-0.005432129,-0.9863281,0.05596924,0.17645264,0.008911133,-0.2597046,0.61639404,-1.6974487,0.7863159,1.3607178,-0.8036499,-0.18988037,-0.23876953,-1.770874,-0.40454102,-0.6989746
0.71875,46,-0.96691895,-0.10839844,-0.25,-0.93048096,0.07800293,-0.010375977,-0.97332764,0.10040283,0.13873291,-0.04119873,-0.22796631,0.6264038,-1.8209229,0.4194336,1.6254883,-0.59588623,-0.53271484,-0.31176758,-1.9517822,-0.83703613,-0.6680298
0.734375,47,-0.9959717,-0.17883301,-0.32470703,-0.93865967,0.06628418,-0.07940674,-1.0012817,0.080200195,0.1149292,-0.042175293,-0.26068115,0.6503296,-0.7540283,0.03173828,1.3172607,-0.31274414,-0.4519043,-0.047424316,1.918396,-0.8648071,-0.73187256
0.75,48,-0.99298096,-0.30010986,-0.27392578,-0.94677734,0.05847168,-0.108947754,-1.0012817,0.10443115,0.12683105,-0.051208496,-0.27355957,0.62841797,-0.18310547,-0.35986328,0.88879395,-0.3637085,-0.22137451,0.07879639,-1.2901001,-0.45214844,-0.082092285
0.765625,49,-0.96295166,-0.25708008,-0.17919922,-0.972229,-0.033569336,-0.13061523,-1.0412598,0.027648926,0.09307861,-0.06726074,-0.25372314,0.64538574,-0.47058105,-0.4666748,0.5745239,-1.0440063,-0.044067383,0.09362793,-0.3326416,-0.529541,-1.989624
0.78125,50,-0.9248657,-0.17095947,-0.18719482,-0.92437744,0.031066895,-0.14837646,-0.9993286,0.09631348,0.061340332,-0.08929443,-0.2210083,0.62939453,-0.97772217,-0.09881592,1.5223999,-0.86169434,-0.06970215,0.25933838,-0.48510742,-0.46801758,-1.9558105
0.796875,51,-0.87579346,-0.14068604,-0.22106934,-0.97528076,0.011474609,-0.12670898,-1.0492554,0.0579834,0.08117676,-0.074279785,-0.27160645,0.67230225,-0.6295166,-0.20959473,-0.45922852,-1.3118896,-0.41448975,0.29779053,-0.807312,0.03289795,1.0618896
0.8125,52,-0.921875,0.007080078,-0.113464355,-1.0079346,0.020263672,-0.14050293,-1.03125,0.045837402,0.0791626,-0.08526611,-0.25274658,0.6513672,-0.70947266,-0.12646484,-0.34509277,-1.0419922,-0.35931396,0.95666504,0.28936768,0.5119629,0.6057129
0.828125,53,-1.0560303,-0.17492676,0.2074585,-1.1505127,-0.16467285,-0.21148682,-1.1450806,0.03173828,0.06726074,-0.07324219,-0.27062988,0.69329834,1.9553833,-1.052185,1.2596436,-1.6174316,0.39337158,0.47338867,1.918396,0.7133179,1.6607666
0.84375,54,-1.2232666,-0.63275146,0.1616211,-1.1464844,0.1328125,-0.3001709,-1.1450806,0.03173828,0.06726074,-0.16345215,-0.23687744,0.7341919,-1.7601929,-0.115600586,0.9868164,-1.645935,-0.12683105,-0.0099487305,1.918396,0.17077637,1.5110474
0.859375,55,-1.5106812,-0.7266846,0.09979248,-1.3706055,0.25610352,-0.07348633,-1.0432129,0.331604,0.465271,-0.1975708,-0.20513916,0.5625,-1.5445557,0.12670898,0.5482788,-1.434082,-0.7720947,-0.48931885,1.918396,-0.17443848,0.5098877
0.875,56,-1.4946289,-0.42144775,0.116760254,-1.5254517,0.08190918,0.074401855,-1.1450806,0.29022217,0.6468506,-0.12237549,-0.1515503,0.73321533,-1.2925415,-0.34405518,-0.5067749,-1.0898438,-0.80859375,-0.7970581,-0.07244873,0.115234375,0.7753906
0.890625,57,-1.3895264,-0.057495117,0.11279297,-1.7536621,0.23852539,0.34448242,-1.0492554,0.18518066,1.1400757,-0.14239502,-0.114868164,0.99072266,-0.5394287,-0.8425293,-1.2818604,-0.9747925,-0.33569336,-0.8444214,-0.83880615,0.45343018,0.8931885
0.90625,58,-1.2883911,0.42773438,0.1296997,-1.763855,0.09954834,0.6539917,-1.2409058,0.05999756,1.2363892,-0.25164795,-0.22692871,0.7261963,-0.2479248,0.09106445,-1.4293823,-0.62438965,0.11553955,-1.0032349,-0.5715332,0.31958008,0.8831787
0.921875,59,-1.0861206,0.22033691,0.36090088,-1.4439087,0.024169922,0.5317993,-1.2619019,-0.15203857,0.9763794,-0.25665283,-0.3222046,1.1374512,-0.91192627,1.2857666,-0.82507324,-1.098999,0.2199707,-0.8996582,-0.5227051,0.28979492,0.8931885
0.9375,60,-0.9439087,0.07165527,0.25927734,-1.2890625,0.17687988,0.3996582,-1.3287964,-0.03692627,0.59820557,-0.66259766,-0.4710083,1.1464844,-1.4747314,1.3964844,-0.7977905,-1.2110596,0.12438965,-0.7043457,-0.49835205,0.25506592,0.88720703
0.953125,61,-0.98895264,-0.018371582,0.13269043,-1.1688843,0.32659912,-0.16418457,-1.3816528,0.15692139,0.13671875,-0.13537598,0.47143555,1.5537109,-0.9402466,0.19000244,-0.7098999,-1.1081543,0.042663574,-0.5248413,-0.5196533,0.2144165,0.847229
0.96875,62,-1.1361694,-0.20227051,0.0579834,-1.4785767,0.34222412,-0.31396484,-1.5324097,0.44769287,-0.004211426,0.8518677,-0.42340088,1.5517578,-0.9139404,-0.3242798,-0.2904663,-0.93707275,-0.27752686,-0.29400635,-0.48205566,0.24414062,0.90515137
0.984375,63,-1.1311646,-0.4761963,-0.0038452148,-1.5356445,0.3128662,-0.40075684,-1.5284424,0.20135498,-0.23638916,0.49505615,-0.24682617,1.5567017,-1.0536499,-0.33618164,-0.016662598,-0.9859619,-0.25097656,-0.11450195,-0.473938,0.22827148,0.8792114
1.0,64,-0.9649658,-0.63275146,0.061950684,-1.4785767,0.26202393,-0.39282227,-1.3547363,0.14477539,-0.40411377,0.46795654,-0.5960083,1.5497437,-1.0212402,-0.20263672,0.14910889,-1.0144653,-0.2489624,-0.06915283,-0.48205566,0.1965332,0.88916016
1.015625,65,-0.791687,-0.63275146,0.13769531,-1.3094482,0.23852539,-0.40863037,-1.1530762,0.16900635,-0.54608154,0.47399902,-0.5057373,1.3491211,-0.97265625,-0.09289551,0.18847656,-0.9869995,-0.27459717,-0.01586914,-0.38446045,0.20648193,0.81329346
1.03125,66,-0.69158936,-0.4527588,0.085876465,-1.1464844,0.2189331,-0.39385986,-0.89746094,0.15289307,-0.6095581,0.4840088,-0.30334473,1.0635986,-0.9260864,-0.051330566,0.16119385,-1.0073853,-0.20562744,0.02355957,-0.41601562,0.25805664,0.88116455
1.046875,67,-0.66052246,-0.40478516,-0.02178955,-0.99468994,0.17297363,-0.36029053,-0.71380615,0.1831665,-0.59069824,0.5050659,-0.23388672,0.888916,-0.9463501,0.0020751953,0.08337402,-1.0063477,-0.06768799,0.02557373,-0.46984863,0.2630005,0.9081421
1.0625,68,-0.69659424,-0.37347412,-0.039733887,-0.9192505,0.11224365,-0.37609863,-0.60998535,0.16601562,-0.6185303,0.46594238,-0.15948486,0.7651367,-0.95648193,0.10687256,0.044006348,-0.993103,0.012084961,-0.04547119,-0.4647827,0.20050049,0.8432617
1.078125,69,-0.6765747,-0.31970215,-0.00579834,-0.86932373,0.08190918,-0.3395996,-0.54504395,0.15490723,-0.6135254,0.43792725,-0.11785889,0.71325684,-0.9544678,-0.0038452148,0.026794434,-0.9574585,-0.103149414,-0.055358887,-0.4749756,0.1697998,0.87420654
1.09375,70,-0.68859863,-0.29229736,-0.026733398,-0.86224365,-0.004211426,-0.352417,-0.51812744,0.10040283,-0.6453247,0.37573242,-0.12976074,0.7022705,-0.97875977,-0.14233398,-0.029785156,-0.9421997,-0.2647705,-0.111572266,-0.5237427,0.2659912,0.880188
1.109375,71,-0.7416382,-0.27270508,-0.08154297,-0.848999,-0.03942871,-0.33172607,-0.48516846,0.10040283,-0.690979,0.3015747,-0.12475586,0.7172241,-0.9342041,-0.09088135,-0.086364746,-0.9503174,-0.22039795,-0.15002441,-0.5095215,0.27392578,0.8552246
1.125,72,-0.82977295,-0.25024414,-0.1453247,-0.8652954,-0.045288086,-0.2824707,-0.55303955,0.080200195,-0.690979,0.11114502,-0.14959717,0.66833496,-0.89575195,0.055480957,-0.1237793,-0.98291016,-0.13861084,-0.11846924,-0.49017334,0.24713135,0.8352661
1.140625,73,-0.8417969,-0.20227051,-0.19519043,-0.8184204,-0.05114746,-0.2666626,-0.5220947,0.07611084,-0.72473145,-0.023132324,-0.13769531,0.7172241,-0.9503784,0.13061523,-0.17327881,-1.0073853,-0.1583252,-0.0602417,-0.5562744,0.2937622,0.82928467
1.15625,74,-0.8016968,-0.25708008,-0.11743164,-0.74401855,-0.04626465,-0.35736084,-0.4781494,0.051879883,-0.7663574,-0.040161133,-0.16845703,0.69226074,-0.9868164,0.015930176,-0.1348877,-0.963562,-0.18200684,-0.059265137,-0.44952393,0.21044922,0.8792114
1.171875,75,-0.7886963,-0.31188965,-0.06561279,-0.64624023,-0.05114746,-0.38104248,-0.43823242,0.07611084,-0.80804443,-0.09832764,-0.23986816,0.7471924,-0.98883057,-0.06713867,-0.07324219,-0.9645996,-0.2006836,-0.0079956055,-0.4932251,0.24414062,0.8552246
1.1875,76,-0.8167114,-0.35491943,-0.1383667,-0.62890625,-0.03942871,-0.43426514,-0.4501953,0.092285156,-0.80010986,-0.1875,-0.2626953,0.80804443,-0.9746704,0.17614746,-0.10253906,-1.0022583,-0.105163574,0.0078125,-0.4749756,0.23028564,0.8532715
1.203125,77,-0.8788452,-0.41357422,-0.203125,-0.6166992,-0.03161621,-0.42437744,-0.5140991,0.10644531,-0.8060913,-0.32885742,-0.31921387,0.8989258,-0.9625244,0.27105713,-0.16015625,-1.0114136,-0.012512207,0.08673096,-0.5074463,0.3394165,0.8322754
1.21875,78,-0.8657837,-0.46154785,-0.18121338,-0.58410645,-0.03161621,-0.4440918,-0.5700073,0.14477539,-0.80407715,-0.4350586,-0.41345215,1.008728,-0.9503784,0.19787598,-0.14697266,-0.9329834,0.11651611,0.04925537,-0.46984863,0.27191162,0.77337646
1.234375,79,-0.8527832,-0.43707275,-0.14935303,-0.5739136,0.06237793,-0.44018555,-0.72576904,0.12054443,-0.7504883,-0.6635742,-0.4710083,1.1025391,-0.9827881,0.1741333,-0.1105957,-0.92285156,0.1293335,0.04724121,-0.48205566,0.32751465,0.8233032
1.25,80,-0.8618164,-0.36273193,-0.19714355,-0.60040283,0.17199707,-0.44708252,-0.8395996,0.14477539,-0.7207031,-0.7838745,-0.59399414,1.2322998,-0.9746704,0.118774414,-0.17224121,-0.93914795,-0.004638672,-0.0079956055,-0.47192383,0.30566406,0.7973633
1.265625,81,-0.8607788,-0.32751465,-0.203125,-0.661499,0.30895996,-0.3395996,-1.017273,0.24578857,-0.5619507,-0.95526123,-0.536499,1.2781982,-1.0050659,-0.20166016,-0.10961914,-0.95336914,-0.17999268,-0.01586914,-0.5095215,0.2243042,0.84625244
1.28125,82,-0.8607788,-0.31188965,-0.18121338,-0.73895264,0.74053955,-0.199646,-1.1829834,0.39520264,-0.30389404,-1.0855713,-0.8043213,1.2432861,-0.8673706,-0.35986328,-0.13787842,-0.9259033,-0.18200684,-0.024780273,-0.527771,0.24017334,0.86120605
1.296875,83,-0.8447876,-0.27667236,-0.1652832,-0.92230225,0.9793701,0.052734375,-1.31781,0.29022217,0.0037231445,-1.3190918,-0.480896,1.3740234,-0.7783203,-0.26098633,-0.17834473,-0.9259033,-0.18591309,-0.08294678,-0.5064697,0.105285645,0.9011841
1.3125,84,-0.87683105,-0.21795654,-0.14733887,-1.1199951,0.9881592,0.381958,-1.350708,0.10443115,0.33917236,-1.361206,-0.036499023,0.85498047,-0.8643799,-0.122558594,-0.15307617,-0.9716797,-0.17211914,-0.18554688,-0.473938,0.11920166,0.85821533
1.328125,85,-0.8948364,-0.20227051,-0.099487305,-1.6151123,1.046875,1.3035889,-1.0442505,0.42144775,1.2542114,-1.3571777,0.23138428,-0.33288574,-0.8805542,-0.0038452148,-0.19952393,-1.0317993,-0.1583252,-0.18945312,-0.4749756,0.20251465,0.8712158
1.34375,86,-0.95092773,-0.20227051,-0.035705566,-1.7342529,0.8590088,1.6229858,-0.8006592,-0.03289795,1.3743286,-1.3582153,0.67181396,-1.4158936,-0.93621826,0.13061523,-0.34509277,-1.0256958,-0.12286377,-0.0947876,-0.4779663,0.24414062,0.89416504
1.359375,87,-1.0420532,-0.17492676,-0.23101807,-0.6044922,0.68670654,0.2991333,-1.104126,0.26800537,-0.2880249,-1.0023804,0.4069214,-0.1182251,-1.0445557,0.1583252,-0.33392334,-1.0430298,-0.124816895,0.00579834,-0.44140625,0.19256592,0.88220215
1.375,88,-0.98895264,-0.14752197,-0.3027954,-0.6574707,0.012451172,0.3031006,-0.751709,0.043823242,-0.121276855,-1.0855713,0.34246826,-0.47961426,-1.0748901,0.08319092,-0.29656982,-1.0267334,-0.0095825195,0.0413208,-0.46173096,0.16680908,0.9390869
1.390625,89,-0.89282227,-0.2374878,-0.30480957,-0.5270386,-0.116760254,0.0211792,-0.69384766,0.3305664,-0.36346436,-0.9702759,-0.24383545,-0.33184814,-1.1508179,0.06536865,-0.15710449,-1.0236206,-0.07659912,0.08081055,-0.4088745,0.20050049,0.8432617
1.40625,90,-0.89782715,-0.31188965,-0.3486328,-0.49035645,-0.54833984,0.050720215,-0.6179199,0.3265381,-0.42895508,-0.78686523,-0.5463867,-0.3109131,-1.1730957,-0.051330566,-0.16723633,-1.0786743,-0.2647705,0.0018920898,-0.5196533,0.12512207,0.9830322
1.421875,91,-0.9058838,-0.48010254,-0.4383545,-0.49035645,-0.6383667,0.09411621,-0.6409302,0.39624023,-0.42297363,-0.65057373,-0.675354,-0.24005127,-1.0759277,-0.23724365,-0.12677002,-1.1244507,-0.33172607,-0.013916016,-0.48712158,0.11920166,0.90911865
1.4375,92,-0.82873535,-0.5857544,-0.46221924,-0.5800171,-0.42694092,0.10498047,-0.7437134,0.39117432,-0.36346436,-0.692688,-0.36584473,-0.12023926,-0.975708,-0.30847168,-0.02166748,-1.0358887,-0.26275635,0.0078125,-0.53796387,0.107299805,0.8712158
1.453125,93,-0.82873535,-0.58184814,-0.4303589,-0.5922241,-0.059020996,0.059631348,-0.78863525,0.387146,-0.3157959,-0.7307739,0.06274414,-0.028442383,-1.0111084,-0.29956055,0.05206299,-1.00531,-0.2489624,0.071899414,-0.5237427,0.091430664,0.8981323
1.46875,94,-0.81274414,-0.4683838,-0.37756348,-1.388916,1.4109497,-0.20361328,-1.7620239,-0.21868896,1.7713013,-1.9785156,-1.1812744,1.5547485,-1.1072998,-0.16210938,-0.086364746,-0.9961548,-0.2824707,0.1005249,-0.51049805,0.08544922,0.85424805
1.484375,95,-0.86883545,-0.37835693,0.012084961,1.9135742,0.5830078,0.80682373,-1.9437256,-0.061157227,1.2979126,-0.44909668,-0.29144287,1.5567017,-1.0860596,-0.08691406,-0.089416504,-1.039917,-0.27062988,0.12615967,-0.5562744,0.12713623,0.8831787
1.5,96,-0.99694824,-0.21014404,0.12176514,-1.435791,0.5673218,0.07635498,-1.7740479,0.79504395,0.05340576,-0.5383301,0.66882324,1.5467529,-1.1832275,0.06732178,-0.13085938,-1.1519775,-0.16229248,0.11431885,-0.5633545,0.113220215,0.89715576
1.515625,97,-1.3093872,0.0012207031,-0.03173828,-0.99157715,0.6769409,-0.030090332,-1.0891724,0.31445312,0.2994995,0.060058594,-0.31225586,0.89294434,-1.335022,0.15240479,-0.11566162,-1.2344971,-0.051940918,0.16955566,-0.5796509,0.19360352,0.9071655
1.53125,98,-1.8661499,0.42382812,-0.49212646,-0.8286133,-0.074645996,0.22424316,-0.72180176,0.11450195,0.46820068,0.37176514,-0.55926514,0.5385742,-1.4585571,0.21765137,0.0025634766,-1.2904663,-0.16229248,0.25042725,-0.6253662,0.26202393,0.9191284
1.546875,99,-1.8471069,0.60772705,-0.3486328,-0.95288086,-0.6383667,0.35235596,-0.87353516,-0.43273926,0.43249512,0.2614746,-0.6793213,0.66534424,-1.4716797,0.16625977,0.15209961,-1.3475342,-0.36328125,0.3145752,-0.6203003,0.24316406,0.927124
1.5625,100,-1.3204346,0.08337402,0.17254639,-1.1098022,-0.48864746,0.11773682,-1.1251221,-0.3277588,0.30743408,-0.016113281,-0.46899414,0.89593506,-1.3795776,0.23742676,0.37445068,-1.3984375,-0.40264893,0.42010498,-0.7168579,0.38104248,0.95306396
1.578125,101,-0.9789429,-0.39013672,0.28118896,-1.0079346,0.05847168,0.0053710938,-1.0252686,0.043823242,0.29553223,0.052001953,-0.16345215,0.83203125,-1.3411255,0.20379639,0.78167725,-1.616394,-0.20562744,0.39050293,-0.9831543,0.8154907,1.1607056
1.59375,102,-0.8998413,-0.64056396,0.13171387,-1.0690308,0.1083374,-0.010375977,-1.0073242,0.10443115,0.35906982,0.08709717,-0.36584473,0.729187,-1.1548462,1.2207031E-4,0.4118042,-1.6550903,-0.051940918,0.16168213,-1.0126343,0.8800049,1.27948
1.609375,103,-0.98999023,-0.55841064,0.016113281,-0.9977417,-0.15686035,-0.06756592,-1.0162964,0.0034179688,0.1942749,0.07910156,-0.5652466,0.77911377,-1.1690063,-0.19372559,-0.005554199,-1.4738159,0.080078125,0.073913574,-1.0126343,0.8800049,1.27948
1.625,104,-1.0209961,-0.4605713,0.047973633,-0.9406738,-0.16467285,-0.041931152,-0.9593506,-0.024841309,0.17645264,0.121154785,-0.42041016,0.6992798,-1.2803955,0.10296631,-0.2420044,-1.210022,0.046569824,-0.520874,-1.3500977,-0.009765625,1.3203735
1.640625,105,-1.0109863,-0.34509277,0.063964844,-1.0130005,0.06628418,0.09802246,-0.90948486,0.023620605,0.38287354,0.11114502,-0.230896,0.68829346,-1.4848633,0.08319092,-0.6320801,-0.916687,-0.2883911,-0.9696655,-1.8969116,-0.23791504,1.4142456
1.65625,106,-0.9008789,-0.27270508,0.0041503906,-0.9834595,0.08288574,0.1315918,-0.88952637,0.007507324,0.36499023,0.13922119,-0.25671387,0.68530273,-1.4423218,-0.21746826,-0.9301758,-0.9503174,-0.5366821,-1.0732422,-1.9741211,0.57250977,1.5559692
1.671875,107,-0.7225952,-0.21795654,-0.029724121,-0.9671631,-0.019836426,0.038879395,-0.92944336,-0.004638672,0.24591064,0.07409668,-0.3916626,0.68829346,-1.2783813,-0.71984863,-0.8463135,-0.9268799,-0.62335205,-1.5783081,1.918396,1.8709106,-1.9558105
1.6875,108,-0.6725464,-0.0848999,0.06591797,-1.0038452,-0.049194336,0.13549805,-0.94140625,-0.028869629,0.30645752,0.101135254,-0.36883545,0.67230225,-1.2945557,-0.85040283,-0.4824829,-0.7914429,-0.30810547,-0.5317383,-0.18829346,1.3560791,0.6845703
1.703125,109,-0.7005615,-0.0770874,0.03704834,-0.9793701,-0.019836426,0.04876709,-0.9763794,-0.03289795,0.25585938,0.048034668,-0.4987793,0.87298584,-1.1720581,-0.5576782,-0.41375732,-0.67840576,0.0012817383,-0.35125732,0.17150879,0.6091919,0.55578613
1.71875,110,-0.8718262,-0.030090332,-0.053649902,-0.9814453,-0.033569336,0.011291504,-0.9873047,0.039794922,0.22802734,-0.064208984,-0.30633545,0.73620605,-1.0779419,-0.122558594,-0.35211182,-0.53582764,-0.1071167,-0.5307617,-0.018554688,0.08843994,0.82928467
1.734375,111,-1.085083,-0.022277832,-0.22106934,-0.9406738,0.034973145,0.0014648438,-0.94140625,0.051879883,0.24389648,0.039001465,-0.3112793,0.6503296,-1.1022339,0.07525635,-0.13690186,-0.4940796,-0.36920166,-0.7260742,-0.30010986,-0.10699463,1.1087646
1.75,112,-1.2162476,0.08337402,-0.2689209,-0.9793701,0.03692627,-0.06561279,-0.98931885,0.092285156,0.21612549,0.04699707,-0.328125,0.7022705,-1.1174316,0.19000244,-0.14294434,-0.43902588,-0.3642578,-0.82470703,-0.42822266,0.0041503906,1.2455444
1.765625,113,-1.123169,0.10491943,-0.21313477,-0.9814453,0.07409668,-0.053771973,-0.96435547,0.080200195,0.17248535,0.041992188,-0.26464844,0.6862793,-1.116394,0.0178833,-0.17022705,-0.43804932,-0.42926025,-0.7694702,-0.37939453,0.11920166,1.1207886
1.78125,114,-0.9268799,0.03643799,-0.06463623,-0.96307373,0.02709961,-0.09515381,-0.94537354,0.007507324,0.14465332,0.036010742,-0.26763916,0.66833496,-1.0424805,-0.1541748,-0.23999023,-0.4237671,-0.38690186,-0.70635986,-0.26556396,0.13903809,0.9890137
1.796875,115,-0.8097534,0.0012207031,-0.0018310547,-0.942688,0.042785645,-0.14245605,-0.9763794,0.06402588,0.10498047,0.014953613,-0.265625,0.69628906,-0.9301758,-0.21746826,-0.2409668,-0.47265625,-0.2736206,-0.58795166,-0.2919922,0.023986816,0.9640503
1.8125,116,-0.7666626,-0.037963867,-0.026733398,-0.942688,-0.011047363,-0.17993164,-0.97332764,0.023620605,0.0692749,-0.05822754,-0.29937744,0.68927,-0.9099121,-0.15814209,-0.22680664,-0.5469971,-0.26672363,-0.6865845,-0.4647827,-0.01965332,1.0009766
1.828125,117,-0.8618164,-0.037963867,-0.037719727,-0.9875488,-0.014953613,-0.14642334,-0.96539307,-0.006652832,0.08117676,-0.007080078,-0.2874756,0.67230225,-0.8309326,0.011962891,-0.2531128,-0.54907227,-0.39874268,-0.71813965,-0.68536377,-0.022644043,1.0668335
1.84375,118,-0.9268799,-0.022277832,-0.17022705,-0.97125244,0.024169922,-0.11682129,-0.9803467,0.007507324,0.10498047,0.025939941,-0.25671387,0.67230225,-0.78234863,0.025817871,-0.29656982,-0.51342773,-0.46472168,-0.65997314,-0.807312,0.0021362305,1.093811
1.859375,119,-1.0100098,0.03741455,-0.21710205,-0.97528076,0.01928711,-0.105041504,-0.9753418,0.0115356445,0.14465332,-0.003112793,-0.27160645,0.6633301,-0.725647,-0.043395996,-0.31781006,-0.5429077,-0.461792,-0.71813965,-0.836792,-0.13079834,1.0628662
1.875,120,-1.0159912,0.137146,-0.22906494,-0.98651123,0.0036621094,-0.08135986,-0.9763794,0.007507324,0.14068604,0.03100586,-0.29541016,0.66430664,-0.67303467,-0.039489746,-0.3480835,-0.55822754,-0.3947754,-0.6589966,-0.88861084,-0.24780273,1.1177368
1.890625,121,-0.9729614,0.1538086,-0.21807861,-0.94677734,0.02709961,-0.103027344,-0.9753418,0.016540527,0.14465332,0.008911133,-0.26464844,0.7022705,-0.6234131,0.03967285,-0.37939453,-0.60198975,-0.41845703,-0.67474365,-0.96588135,-0.25280762,1.2185669
1.90625,122,-0.8778076,0.12249756,-0.17523193,-0.9650879,0.011474609,-0.09710693,-0.9663696,0.019592285,0.14068604,-0.0010986328,-0.24084473,0.6583252,-0.65686035,-0.019714355,-0.42590332,-0.67633057,-0.39874268,-0.7605591,-1.157959,-0.2736206,1.4012451
1.921875,123,-0.8568115,0.05596924,-0.1652832,-0.9671631,-0.004211426,-0.105041504,-0.99035645,0.025634766,0.13275146,0.010925293,-0.27557373,0.64538574,-0.63256836,-0.13043213,-0.30462646,-0.7822876,-0.3918457,-0.66589355,-1.574707,-0.20617676,1.5499878
1.9375,124,-0.82977295,-0.006652832,-0.1772461,-0.9977417,0.021240234,-0.04486084,-0.99731445,0.023620605,0.20025635,0.024963379,-0.27557373,0.6114502,-0.57385254,-0.1897583,-0.12982178,-0.7944946,-0.3918457,-0.6135864,-1.9568481,-0.13079834,1.5369873
1.953125,125,-0.78967285,-0.041870117,-0.24298096,-0.972229,0.02709961,0.0211792,-0.98132324,0.023620605,0.18237305,-0.007080078,-0.2626953,0.63238525,-0.42401123,-0.29656982,0.03387451,-0.8657837,-0.35736084,-0.42321777,1.918396,-0.12182617,1.2485352
1.96875,126,-0.7886963,-0.049682617,-0.22705078,-1.0079346,0.032043457,0.04876709,-0.99035645,0.06604004,0.2121582,0.014953613,-0.21606445,0.68829346,-0.3491211,-0.23431396,0.20263672,-0.99005127,-0.40759277,-0.21118164,1.918396,-0.33215332,0.9230957
1.984375,127,-0.78570557,-0.0770874,-0.25097656,-0.9793701,0.12109375,0.029052734,-0.97332764,0.047851562,0.17645264,-0.032165527,-0.27160645,0.6333618,-0.4321289,-0.1383667,0.35723877,-1.0317993,-0.28442383,0.034423828,1.9252319,-0.37280273,0.46990967
2.0,128,-0.8137207,-0.08880615,-0.2828369,-0.91619873,0.047668457,0.0211792,-0.958374,0.10443115,0.16851807,-0.021118164,-0.25177002,0.6034546,-0.6538086,0.049560547,0.65740967,-1.0155029,-0.1583252,0.09161377,-1.9884033,-0.18927002,0.074645996
2.015625,129,-0.78570557,-0.12792969,-0.2828369,-0.92437744,0.097595215,0.029052734,-0.95336914,0.10443115,0.14764404,-0.046203613,-0.23486328,0.66430664,-0.96661377,0.44708252,1.0211792,-0.85253906,-0.1307373,-0.023742676,-1.8135376,-0.2319336,-0.24078369
2.03125,130,-0.83374023,-0.21795654,-0.25,-0.942688,0.12890625,0.03692627,-0.96936035,0.10040283,0.1605835,-0.04119873,-0.25769043,0.64038086,-1.4767456,0.69433594,1.1990356,-0.70892334,-0.17803955,-0.12438965,-1.7901611,-0.41845703,-0.46435547
2.046875,131,-0.836792,-0.3187256,-0.21710205,-0.9406738,0.072143555,0.007385254,-0.9753418,0.11956787,0.15856934,-0.05621338,-0.23687744,0.635376,-1.1842041,0.23742676,1.1010132,-0.5276489,-0.31298828,-0.25854492,-1.8430176,-0.5195923,-0.5621948
2.0625,132,-0.836792,-0.38916016,-0.21710205,-0.913147,0.07116699,0.0043945312,-0.9713745,0.11450195,0.13378906,-0.05419922,-0.22796631,0.6184082,-0.5637207,-0.24121094,0.7907715,-0.4258423,-0.24798584,-0.115478516,-1.6905518,-0.45910645,-0.21282959
2.078125,133,-0.8497925,-0.44488525,-0.18920898,-0.97528076,-0.0256958,-0.014343262,-0.99334717,0.06604004,0.1605835,-0.07122803,-0.237854,0.62438965,-0.5576172,-0.43902588,0.673584,-0.93707275,0.0072021484,-0.019836426,-1.1244507,-0.10101318,-1.9736328
2.09375,134,-0.86883545,-0.39013672,-0.30078125,-0.95495605,0.02709961,-0.08331299,-1.0282593,0.10644531,0.1317749,-0.08526611,-0.24285889,0.62438965,-0.9807739,-0.29858398,0.864563,-0.34228516,3.0517578E-4,-0.24273682,-1.9161987,-0.7437744,-0.6320801
2.109375,135,-0.9649658,-0.17095947,-0.2230835,-0.9834595,0.004638672,-0.105041504,-1.0651855,0.07409668,0.09008789,-0.07928467,-0.27752686,0.64837646,-1.0819702,-0.24517822,1.5355225,-1.197815,-0.38690186,0.4260254,-0.3397827,-0.7963257,-1.9558105
2.125,136,-1.0530396,-0.0770874,-0.14135742,-1.0333862,-0.10205078,-0.108947754,-1.1051636,0.09631348,0.10101318,-0.08929443,-0.24780273,0.7032471,-0.45336914,0.17907715,-1.1524658,-1.6286011,-0.9307251,1.0908203,0.42053223,-0.43432617,0.53582764
2.140625,137,-1.0500488,-0.1817627,0.2074585,-1.1057129,-0.17645264,-0.1720581,-1.1690063,0.09631348,0.08709717,-0.12237549,-0.25769043,0.72125244,-1.7895508,-0.8425293,1.394043,-1.3953857,0.14508057,0.7258911,1.918396,-0.10101318,1.9013672
2.15625,138,-1.2773438,-0.62493896,0.27618408,-1.130127,-0.096191406,-0.24694824,-1.137085,0.16900635,0.09307861,-0.18450928,-0.23590088,0.72125244,1.9543457,-0.2906494,1.1990356,-1.7854614,-0.13861084,0.09063721,1.918396,0.74902344,1.8883667
2.171875,139,-1.5036621,-0.7149048,0.005126953,-1.3950195,0.101501465,0.03302002,-0.96435547,0.2821045,0.5297241,-0.23162842,-0.14660645,0.59246826,-1.6710815,0.33636475,0.581604,-1.4442749,-0.4805298,-0.45581055,1.918396,-0.1317749,-1.9558105
2.1875,140,-1.4966431,-0.14752197,0.052978516,-1.4928589,-0.04724121,0.03302002,-1.1191406,0.34674072,0.583313,-0.092285156,-0.17340088,0.73223877,-1.3259277,-0.47857666,-0.67248535,-1.0022583,-0.37609863,-0.82073975,-0.8022461,0.19158936,0.70947266
2.203125,141,-1.4135132,0.29467773,0.0021362305,-1.8534546,0.01928711,0.5180054,-1.1171265,0.08520508,1.3058472,-0.0993042,-0.13171387,0.62542725,-0.24084473,-0.3955078,-1.4910278,-0.8433838,-0.21746826,-1.1403198,-0.4180298,0.3711548,0.9470825
2.21875,142,-1.352478,0.60772705,0.18054199,-1.7495728,-0.116760254,0.70721436,-1.2539062,-0.27929688,1.2562256,-0.27770996,-0.34002686,1.0905762,-0.08190918,-0.49041748,-1.277771,-0.57244873,-0.062805176,-1.1324463,-0.836792,0.38897705,0.86224365
2.234375,143,-1.1752319,0.34161377,0.3449707,-1.5458374,0.042785645,0.6362915,-1.416626,-0.28131104,1.0061035,-0.80895996,-0.230896,1.0466309,-1.0698242,0.9495239,-0.83013916,-1.0837402,-0.17803955,-0.9036255,-0.5074463,0.11126709,0.92907715
2.25,144,-0.97998047,0.18121338,0.18951416,-1.4205322,0.1328125,0.33068848,-1.4995117,-0.17425537,0.6369629,-0.23864746,-0.43426514,0.86499023,-1.7581787,1.4855347,-0.63812256,-1.3373413,-0.12683105,-0.7023926,-0.53900146,0.23919678,0.87323
2.265625,145,-0.9789429,0.05596924,0.3031006,-1.3502197,0.5184326,-0.30804443,-1.5444336,0.2175293,0.0970459,-0.15545654,0.6876831,1.5537109,-0.99090576,0.16229248,-0.66033936,-1.0430298,0.03375244,-0.5455322,-0.4576416,0.19458008,0.8951416
2.28125,146,-1.2463379,-0.13970947,0.095825195,-1.7699585,0.4831543,-0.49536133,-1.7540894,0.52648926,-0.18481445,0.60528564,-0.30236816,1.5567017,-0.9423218,-0.53393555,-0.2531128,-1.0430298,-0.21154785,-0.3453369,-0.48919678,0.14697266,0.83325195
2.296875,147,-1.3364258,-0.40576172,-0.089538574,-1.657898,0.46557617,-0.54663086,-1.5713501,0.33465576,-0.4487915,0.3687744,-0.2765503,1.5547485,-1.0698242,-0.45483398,0.059143066,-1.0419922,-0.18200684,-0.20129395,-0.4088745,0.1171875,0.8911743
2.3125,148,-1.1772461,-0.62493896,0.040039062,-1.494873,0.3814087,-0.5150757,-1.310791,0.23565674,-0.63739014,0.41485596,-0.45117188,1.5557251,-1.06781,-0.20959473,0.06726074,-1.0348511,-0.23516846,-0.15991211,-0.46984863,0.1340332,0.913147
2.328125,149,-0.9038696,-0.7070923,0.052978516,-1.3135376,0.2541504,-0.5091553,-1.0692139,0.22558594,-0.66711426,0.48199463,-0.52160645,1.2762451,-0.97875977,-0.24914551,0.17938232,-0.93200684,-0.38787842,-0.12634277,-0.44854736,0.2144165,0.90216064
2.34375,150,-0.72058105,-0.4527588,0.03704834,-1.1260986,0.23071289,-0.44018555,-0.82958984,0.18518066,-0.71673584,0.52111816,-0.28448486,0.9927368,-0.85723877,0.051513672,0.04296875,-0.98291016,-0.37506104,-0.10858154,-0.4658203,0.27789307,0.8931885
2.359375,151,-0.628479,-0.41357422,0.020080566,-1.0425415,0.1895752,-0.4105835,-0.64990234,0.15289307,-0.746521,0.51708984,-0.23486328,0.8380127,-0.8613281,0.37591553,-0.10656738,-1.0002441,-0.0036621094,-0.06518555,-0.4953003,0.2243042,0.840271
2.375,152,-0.59643555,-0.39013672,0.005126953,-0.972229,0.06628418,-0.39971924,-0.56604004,0.13671875,-0.7644043,0.50006104,-0.20513916,0.74816895,-0.9523926,0.33636475,-0.13085938,-1.0267334,0.38745117,-0.10070801,-0.53082275,0.21044922,0.8442383
2.390625,153,-0.67352295,-0.34313965,0.012084961,-0.9284668,-3.0517578E-4,-0.4312744,-0.4562378,0.07208252,-0.77233887,0.46899414,-0.17041016,0.72021484,-0.9706421,0.08709717,-0.0014648438,-0.9890137,0.20227051,-0.09082031,-0.5237427,0.24316406,0.83428955
2.40625,154,-0.7496338,-0.24139404,0.021057129,-0.8978882,-0.066833496,-0.4204712,-0.43426514,0.045837402,-0.75445557,0.38781738,-0.120788574,0.7142334,-0.90789795,0.0435791,-0.037841797,-0.92181396,-0.20562744,-0.06915283,-0.49835205,0.19555664,0.847229
2.421875,155,-0.8097534,-0.24926758,-0.059631348,-0.83270264,-0.12554932,-0.4105835,-0.41827393,0.0115356445,-0.72869873,0.2584839,-0.13568115,0.7102661,-0.91192627,-0.0038452148,-0.037841797,-0.96051025,-0.3711548,-0.019836426,-0.5227051,0.18365479,0.9061279
2.4375,156,-0.8447876,-0.24536133,-0.15429688,-0.83673096,-0.12164307,-0.31988525,-0.48217773,0.039794922,-0.746521,0.0049438477,-0.099975586,0.6942749,-0.9746704,-0.11065674,0.0056152344,-0.9574585,-0.2923584,-0.10266113,-0.4749756,0.17871094,0.80133057
2.453125,157,-0.7756958,-0.25708008,-0.109436035,-0.743042,-0.13726807,-0.3731079,-0.40631104,0.03173828,-0.788208,0.0029296875,-0.11883545,0.635376,-0.963562,-0.14233398,-0.06213379,-0.9625244,-0.18591309,-0.1381836,-0.4942627,0.15985107,0.85424805
2.46875,158,-0.67755127,-0.35101318,-0.043701172,-0.6166992,-0.14019775,-0.4204712,-0.26654053,0.009521484,-0.86364746,-0.04119873,-0.14562988,0.64038086,-0.9544678,-0.13641357,-0.06213379,-0.9472656,-0.19378662,-0.08001709,-0.527771,0.19458008,0.8851929
2.484375,159,-0.66156006,-0.36273193,-0.03375244,-0.5413208,-0.12554932,-0.48651123,-0.21063232,0.017578125,-0.899353,-0.07525635,-0.20611572,0.67230225,-0.94836426,0.027770996,-0.12780762,-0.96661377,-0.17016602,-0.04547119,-0.5095215,0.20648193,0.83825684
2.5,160,-0.71759033,-0.37835693,-0.13934326,-0.48223877,-0.10595703,-0.53479004,-0.25054932,0.07208252,-0.9033203,-0.19952393,-0.26367188,0.76013184,-0.9989624,0.16229248,-0.14294434,-0.980896,-0.053894043,-0.02178955,-0.54608154,0.20251465,0.88616943
2.515625,161,-0.791687,-0.3128662,-0.21313477,-0.449646,-0.096191406,-0.5623779,-0.2984619,0.07208252,-0.9281616,-0.36791992,-0.3499756,0.85998535,-1.0050659,0.2750244,-0.2642212,-0.95544434,-0.0095825195,-0.06323242,-0.50341797,0.22631836,0.81329346
2.53125,162,-0.82873535,-0.2883911,-0.18920898,-0.45776367,-0.05114746,-0.6097412,-0.45422363,0.13671875,-0.9152832,-0.5182495,-0.446167,1.0386353,-0.9645386,0.31658936,-0.21368408,-0.93811035,-0.055908203,0.039367676,-0.5217285,0.21044922,0.8372803
2.546875,163,-0.7927246,-0.2805786,-0.20715332,-0.5474243,0.01928711,-0.53082275,-0.65789795,0.13269043,-0.8279419,-0.7888794,-0.550354,1.201355,-1.0333862,0.31262207,-0.14801025,-0.9727173,-0.032226562,0.06896973,-0.48205566,0.2074585,0.80133057
2.5625,164,-0.81573486,-0.2619629,-0.18920898,-0.60546875,0.16900635,-0.50323486,-0.93743896,0.15289307,-0.7366333,-0.98931885,-0.46606445,1.4229736,-0.8208008,0.1385498,-0.07324219,-0.9696655,-0.051940918,0.061035156,-0.48205566,0.17077637,0.9230957
2.578125,165,-0.836792,-0.30010986,-0.21807861,-0.66967773,0.57910156,-0.34161377,-1.0891724,0.5405884,-0.5182495,-1.1677246,-1.3201904,1.361084,-0.96661377,-0.21350098,0.018737793,-0.94317627,-0.07952881,0.01171875,-0.48205566,0.1906128,0.8652344
2.59375,166,-0.8217163,-0.31970215,-0.25897217,-0.8286133,0.81884766,-0.0044555664,-1.3167725,0.29522705,-0.09350586,-1.3571777,-0.5097046,1.4868774,-0.9058838,-0.26794434,-0.11968994,-0.96661377,-0.20959473,0.009765625,-0.46984863,0.13604736,0.8652344
2.609375,167,-0.87384033,-0.17687988,-0.21807861,-0.9885254,1.091919,0.16705322,-1.416626,0.3164673,0.15063477,-1.3591919,-0.328125,1.255249,-0.87145996,-0.2748413,-0.16723633,-0.9645996,-0.22235107,-0.03363037,-0.4953003,0.06561279,0.8632202
2.625,168,-0.921875,-0.0927124,-0.19116211,-1.3216553,1.1790161,0.7624512,-1.3527222,0.06506348,0.82250977,-1.3571777,0.1361084,0.6613159,-0.92407227,-0.1541748,-0.12176514,-0.9492798,-0.16229248,-0.035583496,-0.47698975,0.053710938,0.88616943
2.640625,169,-0.9569092,-0.13970947,-0.099487305,1.9998169,1.0527344,-1.9813232,-0.80163574,-0.08337402,1.968811,-1.3551636,0.5557251,-0.55548096,-0.92407227,-0.059265137,-0.087402344,-1.0073853,-0.036193848,0.045288086,-0.4729004,0.14892578,0.8931885
2.65625,170,-1.0020142,-0.21795654,-0.08557129,-0.83270264,1.0859985,0.67767334,-1.1500854,0.1730957,-0.029968262,-1.3562012,0.57458496,0.18023682,-1.0111084,0.023803711,0.04296875,-1.0042725,-0.008605957,0.17150879,-0.40075684,0.24615479,0.88916016
2.671875,171,-1.0020142,-0.21795654,-0.08557129,-0.6574707,0.29431152,0.4401245,-0.84558105,0.007507324,-0.061767578,-1.3441772,0.38513184,-0.45263672,-1.092102,0.08319092,-0.087402344,-1.0582886,-0.006591797,0.14196777,-0.43225098,0.1281128,0.8991699
2.6875,172,-0.9489136,-0.26879883,-0.31677246,-0.5250244,-0.11279297,0.10394287,-0.68981934,0.19329834,-0.25628662,-0.98931885,-0.04840088,-0.49957275,-1.1508179,0.15039062,-0.2692871,-1.1020508,-0.1071167,0.04724121,-0.41601562,0.19854736,0.91516113
2.703125,173,-0.9439087,-0.32165527,-0.3685913,-0.449646,-0.57177734,0.029052734,-0.63391113,0.1609497,-0.36346436,-0.7698364,-0.51068115,-0.41174316,-1.2469482,0.10687256,-0.2571411,-1.1519775,-0.27264404,-0.0099487305,-0.45056152,0.15093994,0.9360962
2.71875,174,-0.9259033,-0.4605713,-0.47418213,-0.46594238,-0.74798584,0.02709961,-0.5979614,0.2982788,-0.41503906,-0.5784302,-0.953125,-0.27496338,-1.1943359,-0.09088135,-0.38549805,-1.1376953,-0.3612671,0.0038452148,-0.40075684,0.121154785,0.8552246
2.734375,175,-0.88183594,-0.6092529,-0.5689087,-0.5392456,-0.62268066,0.078308105,-0.68981934,0.34069824,-0.37335205,-0.5784302,-0.8430176,-0.13323975,-1.0839844,-0.37573242,-0.24804688,-1.0959473,-0.3218994,0.033447266,-0.49017334,0.07751465,0.927124
2.75,176,-0.85375977,-0.65618896,-0.5001221,-0.61468506,-0.20483398,0.06451416,-0.76971436,0.37097168,-0.34362793,-0.6816406,-0.355896,-0.032409668,-1.0596924,-0.45880127,-0.06311035,-1.0338135,-0.35931396,0.15179443,-0.5145874,0.047790527,0.93310547
2.765625,177,-0.80474854,-0.5857544,-0.40045166,-1.4296875,0.9440918,0.21832275,-1.5893555,-0.19848633,1.199646,1.1375122,-1.6276855,1.4699097,-1.0516357,-0.34503174,0.20367432,-0.9289551,-0.2765503,0.18829346,-0.53082275,0.13903809,0.86120605
2.78125,178,-0.85076904,-0.39013672,-0.01776123,1.9135742,0.52819824,0.79400635,1.9933472,0.15490723,1.2423096,-0.5333252,-0.17340088,1.5527344,-1.0333862,-0.15814209,0.22589111,-0.98291016,-0.14257812,0.24060059,-0.5969238,0.15490723,0.8352661
2.796875,179,-0.9559326,-0.2189331,0.14562988,-1.4866943,0.8981323,0.13549805,-1.670227,0.8152466,0.23797607,-0.43707275,0.8126831,1.5098267,-1.2196655,0.09106445,0.07531738,-1.1132812,-0.059814453,0.30371094,-0.53900146,0.2520752,0.9390869
2.8125,180,-1.3814697,-0.0692749,0.046020508,-0.9345703,0.8843994,-0.020263672,-1.024292,0.48406982,0.35906982,0.0690918,0.08453369,0.88690186,-1.4352417,0.3600464,0.07836914,-1.2630005,-0.11895752,0.35498047,-0.5847168,0.23822021,0.9800415
2.828125,181,-1.9852905,0.4003296,-0.539978,-0.77563477,-0.070739746,0.19665527,-0.6558838,0.05596924,0.44934082,0.3477173,-0.4541626,0.5734863,-1.5597534,0.34326172,0.12384033,-1.3668823,-0.35144043,0.34710693,-0.58880615,0.17474365,0.97698975
2.84375,182,-1.9342041,0.54901123,-0.23699951,-1.1220093,-0.7832031,0.2695923,-1.00531,-0.5498657,0.45037842,0.105163574,-1.001709,0.7571411,-1.4868774,0.24932861,0.2662964,-1.439209,-0.42236328,0.39837646,-0.6416626,0.29278564,1.053894
2.859375,183,-1.3344116,0.032470703,0.37683105,-1.1729736,-0.6187744,0.0793457,-1.2279663,-0.35198975,0.23797607,-0.029174805,-0.5999756,0.8590088,-1.366394,0.22558594,0.7625122,-1.6398315,-0.25683594,0.46350098,-0.70874023,0.6647339,1.1846313
2.875,184,-0.93188477,-0.33532715,0.35394287,-1.0690308,0.061401367,-0.041931152,-1.0602417,0.0357666,0.21813965,0.05303955,-0.19622803,0.8699341,-1.2479858,0.06732178,0.4390869,-1.7783203,0.06628418,0.18536377,-0.88861084,1.0119019,1.1826782
2.890625,185,-0.8858032,-0.37835693,0.22338867,-1.0792236,0.16412354,-0.100097656,-1.0681763,0.080200195,0.25982666,0.056030273,-0.3222046,0.85198975,-1.092102,-0.21350098,0.115722656,-1.5614014,0.17663574,-0.049438477,-0.9973755,0.78375244,1.3693237
2.90625,186,-1.0059814,-0.23358154,0.09979248,-1.0038452,-0.1607666,-0.16809082,-0.99334717,-0.07330322,0.12286377,0.06402588,-0.45117188,0.7501831,-1.3572998,0.26812744,-0.3764038,-1.2752075,0.095825195,-0.49523926,-0.9038696,-0.12286377,1.1607056
2.921875,187,-1.0941162,-0.18078613,-0.010803223,-1.00177,-0.12164307,-0.08331299,-0.9963379,-0.055114746,0.20721436,0.07208252,-0.33410645,0.7462158,-1.5992432,0.27697754,-0.88671875,-1.104126,-0.0076293945,-0.5307617,-1.2006836,-0.4085083,1.0958252
2.9375,188,-1.0861206,-0.26489258,-0.047668457,-1.0160522,0.08483887,0.13354492,-0.9164429,0.007507324,0.44140625,0.17327881,-0.15948486,0.6793213,-1.5151978,-0.043395996,-1.0352783,-0.90856934,-0.39282227,-1.0101318,-1.7739258,-0.7060547,1.6038818
2.953125,189,-0.9468994,-0.25708008,-0.07458496,-0.95495605,0.0036621094,0.10986328,-0.88153076,0.007507324,0.3451538,0.14123535,-0.2894287,0.6703491,-1.4403076,-0.36779785,-0.91503906,-0.8444214,-0.74554443,-1.9215088,1.918396,1.9968872,-1.9558105
2.96875,190,-0.7496338,-0.18078613,0.06591797,-1.0079346,-0.18719482,0.14929199,-0.944397,-0.07128906,0.35510254,0.11315918,-0.4541626,0.682312,-1.3532715,-0.8899536,-0.5582886,-0.8321533,-0.6154785,-1.0318604,-1.5116577,1.8272705,1.699707
2.984375,191,-0.66156006,-0.11425781,0.1296997,-0.9793701,-0.074645996,0.13946533,-0.93743896,-0.061157227,0.3213501,0.09313965,-0.36779785,0.68927,-1.1973877,-0.66052246,-0.3864746,-0.69470215,0.029846191,-0.34039307,-0.019592285,1.0396729,0.6456299
3.0,192,-0.8016968,-0.006652832,-0.025756836,-0.960022,0.01928711,0.07244873,-0.91345215,0.039794922,0.30944824,0.09515381,-0.300354,0.67633057,-1.1103516,-0.14630127,-0.31781006,-0.65600586,-0.060791016,-0.35913086,0.36358643,0.33441162,0.47192383
3.015625,193,-0.9689331,-0.006652832,-0.17321777,-0.94781494,-0.06585693,0.04876709,-0.944397,0.03173828,0.2518921,0.09613037,-0.362854,0.6663208,-1.1224976,0.07525635,-0.1348877,-0.5266113,-0.20959473,-0.5288086,0.013916016,-0.04547119,0.7164917
3.03125,194,-1.1361694,-0.047729492,-0.23504639,-0.97631836,0.05847168,-0.008422852,-0.93743896,0.05999756,0.2538452,0.107177734,-0.2874756,0.6224365,-1.1690063,0.055480957,-0.10253906,-0.5266113,-0.103149414,-0.63134766,-0.3326416,-0.12286377,1.0388794
3.046875,195,-1.0950928,-0.027160645,-0.21911621,-0.9417114,0.06628418,-0.0025024414,-0.9423828,0.0579834,0.2300415,0.080078125,-0.27856445,0.67529297,-1.1305542,-0.06121826,-0.16619873,-0.48388672,-0.32678223,-0.7260742,-0.34075928,0.05670166,1.0968018
3.0625,196,-0.9529419,-0.064331055,-0.1383667,-0.9804077,0.020263672,-0.011352539,-0.9673462,0.03778076,0.21911621,0.054016113,-0.27856445,0.6992798,-0.9949341,-0.2590332,-0.26116943,-0.4777832,-0.49725342,-0.65405273,-0.2909546,0.10430908,1.0668335
3.078125,197,-0.8227539,-0.11425781,-0.026733398,-0.9345703,-0.03552246,-0.018249512,-0.92541504,-0.0126953125,0.21813965,0.041992188,-0.28253174,0.6593628,-0.9088745,-0.37176514,-0.27227783,-0.46655273,-0.6036377,-0.66882324,-0.27062988,0.091430664,1.0159302
3.09375,198,-0.78167725,-0.0770874,-0.059631348,-0.97125244,-0.004211426,-0.045837402,-1.0012817,0.019592285,0.20025635,0.0099487305,-0.26861572,0.70428467,-0.84716797,-0.35595703,-0.23999023,-0.48895264,-0.5376587,-0.6392822,-0.38043213,-0.054382324,1.020935
3.109375,199,-0.8137207,-0.053588867,-0.109436035,-0.96307373,0.011474609,-0.053771973,-0.97735596,0.03173828,0.19134521,0.0289917,-0.2487793,0.6812744,-0.774292,-0.24914551,-0.28845215,-0.4696045,-0.57806396,-0.65008545,-0.48712158,-0.110961914,1.0718384
3.125,200,-0.8607788,-0.06335449,-0.12738037,-0.96307373,-0.045288086,-0.053771973,-0.98132324,-0.0126953125,0.17944336,0.016967773,-0.3390503,0.6743164,-0.72772217,-0.17199707,-0.34509277,-0.46044922,-0.6036377,-0.63726807,-0.7015991,-0.1138916,1.1047974
3.140625,201,-0.9098511,-0.006652832,-0.19317627,-0.94677734,0.06237793,-0.06561279,-0.96539307,0.051879883,0.2062378,0.022949219,-0.2557373,0.66833496,-0.6538086,-0.122558594,-0.36224365,-0.44415283,-0.48150635,-0.65112305,-0.8723755,-0.17340088,1.2275391
3.15625,202,-0.92889404,0.05206299,-0.16131592,-0.9559326,0.022216797,-0.053771973,-0.9663696,0.05596924,0.20422363,0.06304932,-0.2626953,0.6503296,-0.6213989,-0.10473633,-0.39764404,-0.4909668,-0.39575195,-0.66290283,-1.0187378,-0.15753174,1.286438
3.171875,203,-0.9178467,0.10290527,-0.16131592,-0.97125244,0.031066895,-0.06854248,-0.9523926,0.023620605,0.13873291,0.00592041,-0.29541016,0.64538574,-0.5697632,-0.122558594,-0.32891846,-0.60809326,-0.39971924,-0.7349243,-1.1325684,-0.20220947,1.4252319
3.1875,204,-0.90185547,0.09118652,-0.1772461,-0.9682007,0.028076172,-0.036010742,-0.9723511,0.03173828,0.18737793,0.0289917,-0.29638672,0.64538574,-0.5404663,-0.15814209,-0.31274414,-0.751709,-0.43023682,-0.69940186,-1.3033447,-0.25280762,1.5469971
3.203125,205,-0.9058838,0.009033203,-0.18518066,-0.9569702,0.011474609,-0.036010742,-0.95336914,0.019592285,0.18536377,0.00592041,-0.2695923,0.66833496,-0.44628906,-0.16210938,-0.2642212,-0.8718872,-0.42730713,-0.58795166,-1.6031494,-0.23986816,1.6618042
3.21875,206,-0.8607788,-0.002746582,-0.21313477,-0.9569702,0.01928711,-0.028137207,-0.9484253,0.007507324,0.1486206,0.021972656,-0.26763916,0.635376,-0.4078369,-0.16802979,-0.18945312,-0.9177246,-0.27264404,-0.49328613,-1.913147,-0.16546631,1.5579834
3.234375,207,-0.8167114,-0.006652832,-0.23400879,-0.9589844,0.0017089844,-0.034057617,-0.99035645,0.03173828,0.1953125,0.0049438477,-0.2874756,0.6213989,-0.4210205,-0.15814209,-0.025756836,-0.95544434,-0.13861084,-0.27038574,1.918396,-0.1665039,1.3703003
3.25,208,-0.77368164,0.05987549,-0.21911621,-0.96307373,0.042785645,0.03100586,-0.96136475,0.04486084,0.19830322,-0.009094238,-0.20117188,0.61639404,-0.45440674,-0.11859131,0.13696289,-1.0480957,-0.11206055,-0.10662842,1.918396,-0.1416626,1.0039673
3.265625,209,-0.76867676,0.04815674,-0.23803711,-0.99157715,-0.049194336,0.08721924,-0.97436523,0.06402588,0.21612549,0.039978027,-0.24285889,0.66430664,-0.5515747,-0.059265137,0.32287598,-1.222229,-0.03717041,0.11431885,1.918396,0.07556152,0.5018921
3.28125,210,-0.7966919,-0.010559082,-0.2230835,-0.9977417,0.17980957,0.03692627,-0.99731445,0.05999756,0.21813965,0.00793457,-0.22796631,0.6213989,-0.9099121,0.340271,0.8635254,-1.0715332,-0.1642456,0.13800049,-1.9314575,0.15289307,-0.08508301
3.296875,211,-0.79870605,-0.12402344,-0.20214844,-0.90808105,0.026123047,-0.037963867,-0.97735596,0.07208252,0.09503174,-0.05218506,-0.2626953,0.6234131,-1.3391113,0.7635498,1.3273926,-0.80877686,-0.3711548,-0.007019043,-1.758667,-0.26171875,-0.39050293
3.3125,212,-0.9338989,-0.21014404,-0.20910645,-0.9100952,0.06237793,-0.08428955,-0.944397,0.09832764,0.0970459,-0.03918457,-0.23590088,0.6074219,-1.6063232,0.723999,1.6204224,-0.51745605,-0.4066162,-0.0059814453,-1.9223022,-0.7407837,-0.55718994
3.328125,213,-0.89385986,-0.34313965,-0.2489624,-0.91619873,0.068237305,-0.11291504,-0.98132324,0.078186035,0.108947754,-0.07525635,-0.24182129,0.6553345,-1.092102,0.13061523,1.1010132,-0.3637085,-0.22137451,0.17944336,1.918396,-0.77648926,-0.7279053
3.34375,214,-0.93688965,-0.4683838,-0.2230835,-0.9732666,0.083862305,-0.1227417,-0.991333,0.06097412,0.06329346,-0.06121826,-0.26763916,0.6394043,-0.5394287,-0.17791748,0.94537354,-0.3932495,0.11553955,0.14489746,-1.9091187,-0.52557373,-0.86364746
3.359375,215,-0.9168701,-0.4487915,-0.29083252,-0.9263916,0.05847168,-0.10107422,-1.0083008,0.07611084,0.09008789,-0.066223145,-0.23291016,0.62841797,-0.604187,-0.29656982,0.7766113,-0.48895264,0.010131836,-0.10266113,-1.6295776,-0.42437744,-0.7279053
3.375,216,-0.89282227,-0.26098633,-0.28485107,-0.9100952,0.031066895,-0.07348633,-0.97735596,0.090270996,0.07122803,-0.08929443,-0.23986816,0.6084595,-0.78741455,-0.12451172,0.5664673,-0.4909668,-0.14257812,-0.28216553,1.0140991,-1.0651855,-0.7438965
3.390625,217,-0.9248657,0.06378174,-0.20910645,-0.9875488,0.0036621094,-0.08532715,-1.0352783,0.049865723,0.116882324,-0.08526611,-0.2626953,0.6433716,-0.81274414,-0.06713867,0.26934814,-1.0837402,0.018981934,0.04333496,1.5426025,0.84924316,0.12854004
3.40625,218,-0.79974365,0.17730713,-0.27288818,-0.960022,0.02709961,-0.114868164,-1.0432129,0.084228516,0.10498047,-0.09832764,-0.2487793,0.6583252,-0.5576172,-0.24121094,0.5078125,-1.2680664,-0.18591309,0.46746826,-0.39971924,-0.3847046,0.7514038
3.421875,219,-0.82873535,0.1694336,-0.27392578,-0.95495605,0.045715332,-0.114868164,-0.9993286,0.09832764,0.08117676,-0.08728027,-0.24682617,0.6303711,-0.057617188,-0.019714355,-0.7007446,-0.60809326,-0.65093994,0.5581665,-0.23809814,0.07159424,0.63061523
3.4375,220,-0.9769287,-0.34710693,0.2682495,-1.0853271,-0.1529541,-0.13653564,-1.144104,0.10644531,0.08514404,-0.12640381,-0.23986816,0.6832886,-1.7277832,-0.30847168,0.8594971,-1.8251953,0.13720703,0.94976807,-1.4008789,-0.21411133,1.3063965
3.453125,221,-1.1571655,-0.8909912,0.2532959,-1.2034912,-0.008117676,-0.23712158,-1.1530762,0.18115234,0.14068604,-0.14343262,-0.2557373,0.729187,1.9553833,0.0040283203,1.3203125,-1.8414917,-0.028320312,-0.07305908,1.918396,0.5853882,1.7446289
3.46875,222,-1.515686,-0.82055664,0.052978516,-1.4052124,0.27764893,0.03692627,-1.0322876,0.31848145,0.56152344,-0.24163818,-0.18133545,0.7261963,-1.9059448,-0.38757324,0.83117676,-1.4381714,-0.7258301,-0.41833496,1.918396,-0.1149292,-1.9558105
3.484375,223,-1.5386963,-0.49188232,0.14562988,-1.4775391,0.032043457,-0.026123047,-1.137085,0.31445312,0.51782227,-0.14343262,-0.19720459,0.8180542,-1.2874756,-0.9908447,-0.15106201,-1.1611328,-1.0617676,-0.8483887,-1.7139282,0.5576172,1.0369263
3.5,224,-1.4064941,0.04425049,-0.01977539,-1.8738403,0.02709961,0.4805298,-1.1520386,0.05596924,1.2443237,-0.119384766,-0.28448486,0.6992798,-0.28637695,-0.98095703,-1.3313599,-1.0725098,-0.53271484,-0.97265625,-0.53082275,-0.054382324,0.8911743
3.515625,225,-1.3654785,0.4492798,0.2064209,-1.763855,0.031066895,0.66778564,-1.263855,-0.113708496,1.178833,-0.36590576,-0.20709229,1.0366821,0.023376465,-0.24517822,-1.468811,-0.5673828,-0.012512207,-1.0772095,-0.6660156,0.5675049,0.8452759
3.53125,226,-1.1431885,0.36901855,0.33203125,-1.5519409,0.109313965,0.5475464,-1.3447266,-0.16217041,0.97436523,-0.65856934,-0.17340088,1.314148,-0.85723877,1.2244263,-1.1898804,-0.8953247,0.18847656,-1.0535278,-0.4586792,0.1350708,0.88116455
3.546875,227,-0.9489136,0.25164795,0.25927734,-1.3787231,0.113220215,0.28930664,-1.463562,-0.008666992,0.5515747,-0.49920654,-0.26464844,1.0566406,-1.7814331,1.8207397,-0.8463135,-1.2731934,0.13232422,-0.8483887,-0.5541992,0.3255005,0.8632202
3.5625,228,-1.0530396,0.07556152,0.2991333,-1.2727661,0.35595703,-0.31396484,-1.4874878,0.28619385,0.10699463,-0.08026123,0.90197754,1.5547485,-1.1589355,0.57366943,-0.8210449,-1.1489258,0.29388428,-0.73986816,-0.5715332,0.19952393,0.86920166
3.578125,229,-1.2903442,-0.14752197,0.17553711,-1.6069336,0.30895996,-0.43621826,-1.6532593,0.39923096,-0.14117432,0.43389893,-0.1932373,1.5557251,-0.8562622,-0.36584473,-0.44610596,-1.0715332,-0.010559082,-0.42425537,-0.5552368,0.2630005,0.9011841
3.59375,230,-1.416565,-0.36273193,-0.11541748,-1.5947266,0.39215088,-0.5426636,-1.5204468,0.2659912,-0.4031372,0.34869385,-0.432312,1.5557251,-1.0708618,-0.526062,-0.029785156,-0.98187256,-0.44995117,-0.37591553,-0.49627686,0.12512207,0.8671875
3.609375,231,-1.234314,-0.66796875,0.012084961,-1.5223999,0.43426514,-0.5269165,-1.336731,0.2376709,-0.5579834,0.36572266,-0.5444336,1.5567017,-1.1609497,-0.37176514,0.02178955,-1.0134888,-0.57214355,-0.19342041,-0.46069336,0.16082764,0.8931885
3.625,232,-0.9338989,-0.70318604,0.021057129,-1.3848267,0.3373413,-0.5288696,-1.1191406,0.22155762,-0.66516113,0.46697998,-0.50372314,1.2781982,-1.0172119,-0.28076172,0.10662842,-0.99005127,-0.49328613,-0.13623047,-0.49121094,0.11920166,0.90911865
3.640625,233,-0.7336426,-0.4761963,0.063964844,-1.1688843,0.30895996,-0.5091553,-0.82562256,0.21343994,-0.6929321,0.5040283,-0.30133057,1.0216675,-0.95648193,-0.09881592,0.0803833,-1.00531,-0.22729492,-0.099731445,-0.473938,0.25805664,0.81134033
3.65625,234,-0.6064453,-0.48406982,0.107788086,-1.0496826,0.20916748,-0.43621826,-0.678833,0.1619873,-0.74853516,0.50909424,-0.24682617,0.82702637,-0.88360596,0.09503174,0.05609131,-1.0144653,-0.08343506,-0.08691406,-0.5054321,0.2590332,0.8751831
3.671875,235,-0.5554199,-0.4683838,0.073913574,-0.93865967,0.10247803,-0.40863037,-0.53808594,0.11248779,-0.7366333,0.48901367,-0.19519043,0.7172241,-0.9038086,0.18206787,-0.05706787,-0.9645996,0.042663574,-0.07897949,-0.48205566,0.3036499,0.84924316
3.6875,236,-0.6535034,-0.41357422,0.0579834,-0.8897095,-0.012023926,-0.42834473,-0.479187,0.10443115,-0.7207031,0.43988037,-0.15649414,0.6843262,-1.0596924,0.118774414,-0.16113281,-1.0042725,0.040649414,-0.055358887,-0.49017334,0.21539307,0.8552246
3.703125,237,-0.76568604,-0.27270508,0.014099121,-0.8897095,-0.10498047,-0.4440918,-0.44122314,0.049865723,-0.7366333,0.3727417,-0.17340088,0.68829346,-0.9827881,0.09899902,-0.0065307617,-0.9737549,-0.024353027,-0.18157959,-0.48205566,0.28186035,0.847229
3.71875,238,-0.8217163,-0.11230469,-0.055664062,-0.8734131,-0.14416504,-0.45593262,-0.4312744,4.272461E-4,-0.7366333,0.26550293,-0.16149902,0.72320557,-0.8724365,0.033691406,-0.078308105,-0.94525146,-0.13861084,-0.16778564,-0.539978,0.3086548,0.84625244
3.734375,239,-0.817749,-0.17492676,-0.08557129,-0.89178467,-0.13336182,-0.36328125,-0.5220947,0.03173828,-0.77630615,0.0049438477,-0.15057373,0.75115967,-0.8269043,-0.04736328,-0.030761719,-0.9574585,-0.26080322,-0.15002441,-0.5227051,0.27392578,0.8312988
3.75,240,-0.7576904,-0.16705322,-0.09051514,-0.8184204,-0.1607666,-0.40270996,-0.48120117,0.023620605,-0.80804443,-0.023132324,-0.15252686,0.6843262,-0.86535645,-0.1027832,-0.1227417,-0.98187256,-0.19378662,-0.14013672,-0.5440674,0.3036499,0.8432617
3.765625,241,-0.7015991,-0.21014404,-0.09753418,-0.68188477,-0.16467285,-0.43029785,-0.35437012,0.015563965,-0.8557129,-0.06121826,-0.16345215,0.7102661,-0.9402466,-0.05529785,-0.1237793,-0.9716797,-0.1071167,-0.11450195,-0.48712158,0.25604248,0.8552246
3.78125,242,-0.6755371,-0.2668457,-0.089538574,-0.5474243,-0.14215088,-0.46777344,-0.28948975,0.023620605,-0.8557129,-0.115356445,-0.21209717,0.72320557,-1.0172119,0.03967285,-0.20861816,-0.98291016,-0.11694336,-0.10662842,-0.53082275,0.27191162,0.84924316
3.796875,243,-0.7196045,-0.29229736,-0.11541748,-0.45776367,-0.12261963,-0.5150757,-0.27453613,0.11248779,-0.8517456,-0.20959473,-0.272583,0.7701416,-0.96661377,0.15435791,-0.17022705,-0.95336914,-0.114990234,-0.055358887,-0.5054321,0.24414062,0.8372803
3.8125,244,-0.78967285,-0.35491943,-0.14434814,-0.39666748,-0.088378906,-0.5249634,-0.3554077,0.11755371,-0.8557129,-0.35491943,-0.31524658,0.8499756,-0.93218994,0.16229248,-0.15509033,-0.96154785,-0.08343506,0.055114746,-0.5064697,0.25012207,0.8372803
3.828125,245,-0.8097534,-0.37445068,-0.1572876,-0.3945923,-0.03552246,-0.5545044,-0.45819092,0.12866211,-0.8477783,-0.50823975,-0.4144287,1.0057373,-1.0536499,0.23742676,-0.09039307,-0.9268799,-0.0026855469,0.13012695,-0.5054321,0.32946777,0.8173218
3.84375,246,-0.81274414,-0.39013672,-0.14935303,-0.48632812,0.032043457,-0.47564697,-0.65789795,0.16497803,-0.7644043,-0.76483154,-0.515625,1.1414795,-1.0070801,0.31658936,-0.026733398,-0.91571045,0.089904785,0.159729,-0.46069336,0.23822021,0.7923584
3.859375,247,-0.82873535,-0.34710693,-0.14135742,-0.57592773,0.13671875,-0.4500122,-0.9164429,0.22558594,-0.6453247,-0.9302368,-0.661438,1.3321533,-1.0030518,0.06732178,0.08746338,-0.9859619,-0.028320312,0.09460449,-0.49017334,0.27392578,0.86920166
3.875,248,-0.8487549,-0.32751465,-0.22503662,-0.66967773,0.2952881,-0.30218506,-1.1130981,0.29022217,-0.46069336,-1.15271,-0.58410645,1.4628906,-0.99694824,-0.1739502,-0.0095825195,-1.0134888,-0.12878418,0.02947998,-0.48712158,0.25012207,0.87023926
3.890625,249,-0.89282227,-0.32751465,-0.21911621,-0.77563477,0.7532959,0.015258789,-1.2229614,0.36090088,-0.053833008,-1.3251343,-0.8648071,1.368042,-0.9402466,-0.25701904,-0.21673584,-1.0205688,-0.18591309,-0.01586914,-0.4383545,0.21343994,0.8881836
3.90625,250,-0.87683105,-0.24926758,-0.21508789,-0.9589844,1.0879517,0.13354492,-1.4106445,0.35479736,0.13476562,-1.3591919,-0.61883545,1.1414795,-0.8997803,-0.18585205,-0.2874756,-0.963562,-0.24108887,-0.08099365,-0.5145874,0.1965332,0.87323
3.921875,251,-0.9008789,-0.14556885,-0.19616699,-1.2401733,1.1917114,0.72003174,-1.2808228,0.10443115,0.6885376,-1.3571777,-0.060302734,0.85498047,-0.86535645,-0.17791748,-0.31274414,-0.99005127,-0.1918335,-0.13226318,-0.52575684,0.25408936,0.8652344
3.9375,252,-0.89282227,-0.07318115,-0.111450195,-1.6293335,1.1956177,1.4229126,-1.0222778,0.0357666,1.3624268,-1.3571777,0.4029541,-0.21209717,-0.8673706,-0.17791748,-0.21569824,-0.9961548,-0.088378906,-0.07702637,-0.49835205,0.26000977,0.8632202
3.953125,253,-0.94488525,-0.06530762,-0.043701172,-1.1831055,1.1173706,1.0985718,-0.95739746,0.047851562,0.55358887,-1.3571777,0.7581177,-0.20611572,-0.9159546,-0.043395996,-0.12176514,-0.9655762,0.0032348633,0.054138184,-0.473938,0.19158936,0.8432617
3.96875,254,-0.97595215,-0.014465332,-0.17523193,-0.5881958,0.58496094,0.2991333,-0.9923096,0.084228516,-0.21063232,-1.28302,0.41986084,-0.034423828,-1.0333862,0.06237793,-0.005554199,-0.96661377,0.080078125,0.17547607,-0.43023682,0.25408936,0.8242798
3.984375,255,-0.9569092,-0.10839844,-0.22106934,-0.5718994,-0.027648926,0.25183105,-0.65789795,0.015563965,-0.15106201,-1.1035767,0.06274414,-0.38775635,-1.1265259,0.19390869,0.059143066,-1.02771,0.2593994,0.29974365,-0.41394043,0.38104248,0.85424805
4.0,256,-0.9569092,-0.2805786,-0.23901367,-0.48632812,-0.38781738,0.029052734,-0.6229248,0.19329834,-0.27612305,-0.8369751,-0.4421997,-0.34985352,-1.2561035,0.22955322,0.019714355,-1.0042725,0.13720703,0.13208008,-0.43634033,0.31359863,0.8961792
4.015625,257,-0.93792725,-0.44488525,-0.36956787,-0.5026245,-0.74798584,-0.015319824,-0.60198975,0.1730957,-0.38330078,-0.59143066,-0.8727417,-0.25500488,-1.2641602,0.16131592,-0.1005249,-1.0918579,-0.31988525,0.02947998,-0.3692627,0.24414062,0.90216064
4.03125,258,-0.9128418,-0.5701294,-0.4413452,-0.5250244,-0.7597046,-0.010375977,-0.66589355,0.27001953,-0.3862915,-0.479187,-1.008667,-0.13922119,-1.1933594,-0.07507324,-0.19348145,-1.192688,-0.5130005,0.07879639,-0.44952393,0.17077637,0.9470825
4.046875,259,-0.8828125,-0.60827637,-0.5828247,-0.6116333,-0.46124268,0.14141846,-0.7527466,0.28515625,-0.3088379,-0.6094971,-0.6168213,-0.08630371,-1.0667725,-0.46472168,-0.14398193,-1.0674438,-0.3731079,0.16558838,-0.60095215,0.068603516,1.0169678
4.0625,260,-0.836792,-0.5750122,-0.4642334,-0.6625366,-0.012023926,0.16802979,-0.83361816,0.3215332,-0.24438477,-0.7618408,-0.14263916,-0.045410156,-1.024292,-0.5913086,-0.078308105,-1.039917,-0.24304199,0.11828613,-0.4576416,0.084472656,0.8641968
4.078125,261,-0.8397827,-0.4683838,-0.2609253,1.9135742,0.6378174,0.92803955,-1.7011719,0.11248779,1.7703247,-0.49523926,0.17779541,1.4519043,-1.1184082,-0.2946167,0.050048828,-1.0185547,-0.2972412,0.12121582,-0.5135498,0.123168945,0.86120605
4.09375,262,-0.9649658,-0.36663818,0.063964844,1.9135742,1.2739258,0.6204834,1.9933472,0.7880249,0.7630005,-0.7067261,0.782959,1.5178223,-1.104248,0.03173828,0.0025634766,-1.0704956,-0.23321533,0.18334961,-0.5023804,0.09240723,0.967041
4.109375,263,-1.241272,-0.2218628,0.107788086,-1.2911377,1.3453369,0.20056152,-1.3497314,0.8031616,0.40270996,-0.23760986,0.85339355,1.0635986,-1.2095337,0.17810059,-0.11968994,-1.1865845,-0.17999268,0.1340332,-0.49835205,0.22033691,0.9490967
4.125,264,-1.7930298,0.11077881,-0.2689209,-0.9793701,0.6965332,0.07043457,-0.95336914,0.5022583,0.36499023,0.07006836,0.012145996,0.81707764,-1.4443359,0.23742676,-0.082336426,-1.3169556,-0.15045166,0.14196777,-0.5145874,0.32751465,0.96502686
4.140625,265,1.9546509,0.7055664,-0.51208496,-0.83270264,-0.3477173,0.17102051,-0.76971436,-0.10961914,0.37890625,0.30963135,-0.7487793,0.635376,-1.4544678,0.17810059,-0.048950195,-1.3485107,-0.3307495,0.13012695,-0.49835205,0.31854248,0.8931885
4.15625,266,-1.5957642,0.53045654,-0.08154297,-0.9650879,-0.93585205,0.08227539,-0.9863281,-0.5862427,0.18634033,0.13519287,-0.987854,0.70428467,-1.3927612,0.0435791,0.006591797,-1.3892822,-0.4736328,0.26226807,-0.63653564,0.30767822,0.9869995
4.171875,267,-1.1011353,-0.1005249,0.23138428,-1.0588379,-0.5130615,-0.021240234,-1.184021,-0.3540039,0.10101318,-0.028137207,-0.43426514,0.8909302,-1.359314,0.09503174,0.20465088,-1.4269409,-0.42633057,0.413208,-0.82354736,0.33343506,1.206604
4.1875,268,-0.94989014,-0.4331665,0.23535156,-0.9875488,0.23852539,-0.020263672,-0.9863281,0.088256836,0.26574707,0.057006836,0.0012207031,0.79211426,-1.3512573,0.011962891,0.5421753,-1.6418457,-0.33172607,0.289917,-1.0258179,0.74212646,1.4002686
4.203125,269,-0.93792725,-0.6131592,0.08984375,-1.0588379,0.140625,0.084228516,-0.96435547,0.10443115,0.44836426,0.15625,-0.21606445,0.7571411,-1.2783813,-0.27288818,0.4633789,-1.6561279,-0.18200684,-0.043518066,-1.2271118,0.5883789,1.3303833
4.21875,270,-1.0130005,-0.53881836,0.14068604,-1.0740967,-0.25274658,0.16705322,-0.98931885,-0.08538818,0.43945312,0.14123535,-0.5671997,0.70129395,-1.1548462,-0.22143555,0.114746094,-1.4666748,-0.044067383,-0.08294678,-1.3388672,0.27789307,1.1566772
4.234375,271,-0.99194336,-0.40185547,0.061950684,-0.94677734,-0.25274658,0.15716553,-0.92944336,-0.08337402,0.3838501,0.14221191,-0.550354,0.6713257,-1.262146,0.24139404,-0.21270752,-1.25177,0.19433594,-0.46173096,-1.3307495,0.42370605,0.9211426
4.25,272,-0.8878174,-0.26489258,0.059936523,-0.93865967,0.0026855469,0.14337158,-0.86157227,0.0014038086,0.42651367,0.15625,-0.3043213,0.67333984,-1.4301758,0.28094482,-0.65734863,-1.0022583,0.18450928,-0.77337646,-0.5715332,0.35028076,0.6256714
4.265625,273,-0.7886963,-0.23358154,0.029052734,-0.93865967,0.020263672,0.092163086,-0.88153076,0.015563965,0.3312378,0.123168945,-0.27856445,0.68829346,-1.3309937,-0.06317139,-0.89178467,-0.76904297,-0.21746826,-0.82073975,1.918396,1.2995605,1.5719604
4.28125,274,-0.65753174,-0.20227051,0.041992188,-0.9182739,-0.014953613,0.057617188,-0.88153076,0.027648926,0.28363037,0.10913086,-0.35095215,0.68530273,-1.1558838,-0.4192505,-0.8543701,-0.66619873,-0.29333496,-1.6019287,1.918396,1.2281494,-1.9558105
4.296875,275,-0.61346436,-0.09661865,0.11376953,-0.93865967,-0.04724121,0.029052734,-0.92944336,-0.008666992,0.28363037,0.101135254,-0.35791016,0.68029785,-1.2561035,-0.597229,-0.434021,-0.8881836,-0.6066284,-0.795105,-0.5552368,1.2102661,1.4381714
4.3125,276,-0.7196045,-0.0115356445,0.083862305,-0.9345703,-0.019836426,-5.493164E-4,-0.92144775,4.272461E-4,0.22802734,0.07507324,-0.30529785,0.6843262,-1.2176514,-0.37963867,-0.3369751,-0.75476074,-0.28051758,-0.43804932,0.36358643,0.66967773,0.8283081
4.328125,277,-0.8607788,0.05987549,0.005126953,-1.0079346,0.043762207,-0.02911377,-0.98931885,0.027648926,0.1665039,-0.0010986328,-0.40551758,0.6912842,-1.1346436,-0.09088135,-0.2803955,-0.6793823,-0.22924805,-0.39855957,0.19995117,0.38104248,0.87719727
4.34375,278,-1.0050049,0.024658203,-0.1303711,-0.9487915,0.089782715,-0.0044555664,-0.9753418,0.09631348,0.23199463,0.080078125,-0.3499756,0.70526123,-1.1589355,0.047546387,-0.23797607,-0.42071533,-0.1977539,-0.57611084,0.030212402,0.29174805,1.0388794
4.359375,279,-1.1011353,0.06768799,-0.21508789,-0.960022,0.1171875,-0.06359863,-0.9753418,0.088256836,0.21020508,0.059020996,-0.28649902,0.6992798,-1.1791382,-0.07904053,-0.14196777,-0.3637085,-0.22827148,-0.7319946,-0.23809814,0.32751465,1.1806641
4.375,280,-1.0730591,0.12542725,-0.12738037,-0.9732666,0.031066895,-0.059692383,-0.96936035,0.05999756,0.1942749,0.041015625,-0.26068115,0.7062378,-1.1011963,-0.2689209,-0.14294434,-0.38812256,-0.25390625,-0.6589966,-0.18121338,0.41375732,1.1387329
4.390625,281,-0.94189453,0.005126953,-0.01977539,-0.9671631,0.05255127,-0.061645508,-0.9883423,0.047851562,0.16455078,-0.011108398,-0.16845703,0.71325684,-0.97875977,-0.3163452,-0.27331543,-0.45129395,-0.2765503,-0.63134766,-0.18933105,0.44848633,1.0289307
4.40625,282,-0.8497925,-0.09661865,-0.04272461,-0.95495605,0.02709961,-0.08532715,-0.94537354,0.0115356445,0.14465332,-0.019165039,-0.25476074,0.7102661,-0.9301758,-0.22143555,-0.32989502,-0.4777832,-0.35144043,-0.6589966,-0.27062988,0.41674805,1.0189209
4.421875,283,-0.8417969,-0.0848999,-0.07757568,-0.9406738,-0.0345459,-0.108947754,-0.97735596,0.03173828,0.14068604,0.0029296875,-0.26763916,0.6832886,-0.9180298,-0.17791748,-0.35009766,-0.4685669,-0.4066162,-0.7595825,-0.43328857,0.27093506,1.1407471
4.4375,284,-0.8718262,-0.045776367,-0.113464355,-0.9589844,-0.019836426,-0.07739258,-0.9863281,0.019592285,0.19030762,0.023986816,-0.2597046,0.6673584,-0.8552246,-0.16210938,-0.36120605,-0.4533081,-0.48150635,-0.7536621,-0.70874023,0.12512207,1.1906128
4.453125,285,-0.94592285,0.024658203,-0.14935303,-0.97125244,-0.019836426,-0.11682129,-0.96936035,0.019592285,0.14465332,0.018920898,-0.26367188,0.6563721,-0.7297363,-0.07312012,-0.409729,-0.39422607,-0.54455566,-0.66290283,-0.9343872,0.020019531,1.1936035
4.46875,286,-0.9649658,0.07946777,-0.20910645,-0.95495605,-0.0022583008,-0.13061523,-0.9803467,0.020629883,0.13275146,0.0099487305,-0.27856445,0.6903076,-0.6345825,-0.07904053,-0.45825195,-0.43804932,-0.43225098,-0.69055176,-1.0258179,-0.124816895,1.2445068
4.484375,287,-0.96795654,0.11859131,-0.22906494,-0.9345703,0.034973145,-0.13061523,-0.96539307,0.06402588,0.13275146,0.05303955,-0.2904663,0.5914917,-0.50097656,-0.059265137,-0.4663086,-0.51031494,-0.3947754,-0.63531494,-1.1152954,-0.1427002,1.3323975
4.5,288,-0.9248657,0.11859131,-0.22906494,-0.9345703,0.034973145,-0.13061523,-0.9863281,0.088256836,0.13476562,-0.021118164,-0.25476074,0.6623535,-0.44024658,-0.09881592,-0.44207764,-0.65496826,-0.4706421,-0.7319946,-1.3276978,-0.11291504,1.5360107
4.515625,289,-0.8657837,0.11859131,-0.21313477,-0.93865967,0.02709961,-0.10107422,-0.94940186,0.051879883,0.09899902,-0.0020751953,-0.26861572,0.63238525,-0.4331665,-0.14031982,-0.42590332,-0.8097534,-0.49328613,-0.6481323,-1.7078247,0.014038086,1.7346802
4.53125,290,-0.7977295,0.0736084,-0.17126465,-0.98547363,0.05847168,-0.039978027,-0.99334717,0.015563965,0.21813965,0.041015625,-0.26464844,0.6433716,-0.4038086,-0.16607666,-0.2642212,-0.93200684,-0.4736328,-0.5288086,1.9465942,-0.116882324,1.819519
4.546875,291,-0.739624,0.04034424,-0.22503662,-0.9834595,-0.049194336,0.0014648438,-0.9923096,0.015563965,0.20025635,0.041992188,-0.22399902,0.60443115,-0.3734131,-0.0038452148,-0.089416504,-1.045044,-0.20959473,-0.32757568,1.918396,-0.21411133,1.5878906
4.5625,292,-0.7286377,0.07946777,-0.29779053,-0.9793701,0.06921387,0.080322266,-0.99334717,-6.1035156E-4,0.26379395,-0.027160645,-0.22991943,0.642395,-0.35113525,0.12670898,0.059143066,-1.0786743,-0.087402344,-0.12634277,1.918396,-0.24383545,1.2295532
4.578125,293,-0.71362305,0.009033203,-0.33666992,-0.92230225,-0.027648926,0.07244873,-0.9473877,0.009521484,0.20819092,-0.051208496,-0.24285889,0.6693115,-0.43011475,0.06732178,0.059143066,-1.2304077,0.010131836,0.0028686523,1.918396,0.06762695,0.7414551
4.59375,294,-0.706604,-0.0770874,-0.37054443,-0.9202881,0.05847168,0.03692627,-0.96240234,0.11450195,0.18041992,-0.003112793,-0.22991943,0.6144409,-0.7034302,0.023803711,0.7382202,-1.1784668,-0.14654541,0.16955566,1.918396,0.16680908,0.035705566
4.609375,295,-0.8317871,-0.11328125,-0.256958,-0.90197754,0.113220215,0.03302002,-0.9673462,0.13269043,0.19628906,-0.04119873,-0.22991943,0.64837646,-1.2368774,0.7279663,1.326355,-0.8220215,-0.5494385,-0.04547119,-1.942627,-0.2845459,-0.49230957
4.625,296,-0.85980225,-0.2345581,-0.21313477,-0.9141846,0.08581543,-0.024169922,-0.94940186,0.18518066,0.13671875,-0.049194336,-0.21704102,0.62042236,-1.6164551,0.66070557,1.8811646,-0.29852295,-0.61151123,0.18334961,1.918396,-1.0612183,-0.87561035
4.640625,297,-0.89385986,-0.37445068,-0.14135742,-0.8754883,0.109313965,-0.06854248,-0.9523926,0.17108154,0.06530762,-0.0602417,-0.22692871,0.6383667,-1.5749512,-0.32824707,1.4284058,-0.20074463,-0.5484619,0.18829346,1.918396,-1.0056152,-1.1012573
4.65625,298,-0.79870605,-0.4899292,-0.2769165,-0.86932373,0.0927124,-0.11682129,-0.9723511,0.14074707,0.061340332,-0.08428955,-0.21307373,0.61242676,-0.56573486,-0.39154053,1.4172974,-0.21398926,0.06628418,0.23266602,1.918396,-0.737854,-1.2819214
4.671875,299,-0.7677002,-0.43902588,-0.123413086,-0.92230225,0.03302002,-0.08532715,-1.00531,0.088256836,0.12683105,-0.08929443,-0.23687744,0.5984497,-0.27624512,-0.5576782,0.8807373,-0.90448,0.113586426,0.11828613,1.918396,-0.17443848,-1.9976196
4.6875,300,-0.9108887,-0.25708008,-0.25494385,-0.9793701,0.14849854,-0.099121094,-1.0462646,0.07409668,0.14465332,-0.072265625,-0.27954102,0.66033936,-0.7803345,-0.68029785,0.5118408,-0.111083984,-0.13470459,-0.24865723,-0.5552368,-0.612854,0.19042969
4.703125,301,-0.9359131,0.024658203,-0.3347168,-0.94677734,0.050598145,-0.12475586,-1.0292358,0.12463379,0.06726074,-0.11035156,-0.230896,0.6513672,-1.0212402,-0.1739502,0.9706421,-1.4921265,-0.29626465,0.5966797,-0.52575684,-1.3012085,-1.9558105
4.71875,302,-0.9489136,0.21252441,-0.05065918,-1.0853271,-0.04333496,-0.11090088,-1.1171265,0.09832764,0.15063477,-0.13842773,-0.22595215,0.6782837,-0.5039673,-0.40338135,-0.81799316,-1.5257568,-0.86376953,0.9822998,0.10644531,0.20648193,0.3012085
4.734375,303,-0.98895264,-0.43707275,0.38482666,-1.1810913,-0.25079346,-0.17797852,-1.184021,0.051879883,0.1486206,-0.14642334,-0.23687744,0.73223877,-1.9241943,-0.7238159,1.2081299,-1.6642456,0.14508057,0.5592041,1.918396,0.38305664,-1.9658813
4.75,304,-1.4005127,-0.8909912,0.27124023,-1.4724731,0.08288574,-0.09320068,-0.96936035,0.1730957,0.5773926,-0.12835693,-0.19421387,0.6333618,1.9553833,-0.5270386,0.94641113,1.9854126,0.05444336,-0.26641846,1.918396,0.42071533,-1.9558105
4.765625,305,-1.906189,-0.45666504,0.1416626,-1.6089478,0.1083374,0.078308105,-1.177002,0.2659912,0.67663574,-0.12939453,-0.21209717,0.86798096,1.9543457,-0.24121094,0.64123535,-1.5501709,-0.607605,-0.83654785,1.918396,-0.34899902,-1.9985962
4.78125,306,-1.7349854,-0.061401367,-0.10644531,-1.993042,0.02709961,0.44702148,-1.1420898,0.10644531,1.331665,-0.11236572,-0.14855957,0.78015137,-0.8754883,0.3046875,-1.4000854,-1.2487183,-1.0647583,-1.0732422,-0.28692627,-0.5860596,1.1607056
4.796875,307,-1.470581,0.39056396,0.1616211,-1.9054565,0.015380859,0.66186523,-1.3657227,-0.053100586,1.2939453,-0.39898682,-0.1237793,1.2442627,0.051696777,-0.95721436,-1.9174805,-0.61932373,-0.4578247,-1.2093506,-0.54711914,0.66174316,0.74243164
4.8125,308,-1.1982422,0.36120605,0.30010986,-1.5509033,0.089782715,0.5465698,-1.4406128,-0.17022705,0.95251465,-0.82196045,-0.23388672,1.4449463,-0.1385498,1.2207031E-4,-1.65979,-0.42175293,0.5263672,-1.2754517,-0.5064697,0.31854248,0.73742676
4.828125,309,-0.94189453,0.25750732,0.26922607,-1.3481445,0.15240479,0.21636963,-1.496521,-0.09753418,0.43841553,-0.44311523,-0.30334473,1.3510742,-1.4362793,-1.9824219,-0.76745605,-1.1122437,0.22784424,-0.93518066,-0.5969238,0.30566406,0.86120605
4.84375,310,-0.88482666,0.14208984,0.36688232,-1.2697144,0.48120117,-0.42834473,-1.4505615,0.3649292,0.02557373,-0.020141602,1.1340942,1.5557251,-1.5030518,1.1789551,-0.7876587,-1.3383789,0.117492676,-0.7655029,-0.6680908,0.043823242,0.91711426
4.859375,311,-1.1552124,0.024658203,0.23535156,-1.6201782,0.39898682,-0.5229492,-1.6362305,0.4033203,-0.2244873,-0.007080078,0.026000977,1.5547485,-0.8430786,-0.37963867,-0.7250366,-1.133667,-0.18988037,-0.4468994,-0.45056152,0.30963135,0.807312
4.875,312,-1.4175415,-0.2140503,-0.06359863,-1.6395264,0.40490723,-0.5663452,-1.5484009,0.25183105,-0.4487915,0.20739746,-0.42236328,1.5557251,-1.0475464,-0.7010498,-0.12982178,-0.86883545,-0.18200684,-0.34924316,-0.60302734,0.19555664,0.99298096
4.890625,313,-1.3614502,-0.55841064,-0.053649902,-1.5315552,0.3295288,-0.5703125,-1.3187866,0.18518066,-0.63739014,0.3597412,-0.675354,1.5567017,-1.1052856,-0.42315674,0.13696289,-0.99005127,-0.33569336,-0.1282959,-0.44140625,0.24017334,0.88916016
4.90625,314,-1.1221313,-0.7344971,0.017089844,-1.3706055,0.27764893,-0.4934082,-1.0911865,0.19329834,-0.68896484,0.4449463,-0.487854,1.2802124,-1.0212402,-0.16998291,0.16931152,-1.0389404,-0.4243164,-0.14215088,-0.5145874,0.14300537,0.93310547
4.921875,315,-0.8027344,-0.66015625,0.105773926,-1.177002,0.25610352,-0.45593262,-0.84155273,0.18920898,-0.7207031,0.5070801,-0.31329346,1.0186768,-0.97875977,-0.04736328,0.08441162,-1.0267334,-0.26080322,-0.1105957,-0.48919678,0.32751465,0.82232666
4.9375,316,-0.58843994,-0.5349121,0.18054199,-1.0812378,0.17980957,-0.44018555,-0.678833,0.14886475,-0.7644043,0.50805664,-0.25476074,0.87994385,-0.90686035,0.10095215,-0.037841797,-0.93914795,0.021972656,-0.11846924,-0.49835205,0.24017334,0.91711426
4.953125,317,-0.42022705,-0.48797607,0.13769531,-1.0079346,0.093688965,-0.42834473,-0.56903076,0.13671875,-0.7385864,0.4920044,-0.1932373,0.7581787,-0.8400879,0.09899902,-0.045959473,-0.9747925,0.074157715,-0.11846924,-0.5633545,0.22332764,0.90911865
4.96875,318,-0.54937744,-0.38623047,0.06591797,-0.9641113,0.022216797,-0.44708252,-0.46417236,0.122558594,-0.75250244,0.48602295,-0.15649414,0.7261963,-0.9180298,0.035705566,0.029846191,-0.96661377,-0.13861084,-0.09875488,-0.48101807,0.19952393,0.84924316
4.984375,319,-0.74365234,-0.2805786,0.030029297,-0.8937988,-0.030639648,-0.44708252,-0.40130615,0.05596924,-0.80407715,0.4048462,-0.14855957,0.7022705,-0.9706421,0.0079956055,0.023803711,-0.9788208,-0.26867676,-0.06713867,-0.44140625,0.20251465,0.8991699
5.0,320,-0.8607788,-0.17883301,-0.11743164,-0.8652954,-0.074645996,-0.4105835,-0.4022827,0.019592285,-0.732666,0.253479,-0.1416626,0.70129395,-1.0151978,-0.059265137,0.017700195,-0.96661377,-0.2253418,-0.11254883,-0.5227051,0.21044922,0.9830322
5.015625,321,-0.8798218,-0.12402344,-0.18719482,-0.86932373,-0.12359619,-0.34161377,-0.519104,0.032714844,-0.7663574,-0.012145996,-0.11584473,0.74920654,-0.8997803,-0.11065674,-0.086364746,-0.95336914,-0.21154785,-0.15594482,-0.5593262,0.21636963,0.8931885
5.03125,322,-0.8307495,-0.20227051,-0.1194458,-0.755249,-0.10595703,-0.3829956,-0.40930176,0.015563965,-0.8279419,-0.017150879,-0.13964844,0.6593628,-0.93218994,-0.20959473,-0.10253906,-0.94525146,-0.18591309,-0.14807129,-0.5145874,0.16778564,0.83929443
5.046875,323,-0.7406616,-0.21307373,-0.09350586,-0.6503296,-0.110839844,-0.44903564,-0.30249023,0.041809082,-0.85668945,-0.05419922,-0.13769531,0.682312,-0.96051025,-0.07110596,-0.095458984,-0.9503174,-0.16033936,-0.059265137,-0.48101807,0.2074585,0.8632202
5.0625,324,-0.7145996,-0.26782227,-0.08856201,-0.5463867,-0.12652588,-0.49438477,-0.21862793,0.038757324,-0.88446045,-0.10333252,-0.17834473,0.7072754,-0.93218994,0.10296631,-0.023742676,-0.9941406,-0.11895752,-0.018859863,-0.5064697,0.24713135,0.8792114
5.078125,325,-0.72161865,-0.30010986,-0.16326904,-0.45166016,-0.1529541,-0.5564575,-0.22357178,0.06402588,-0.9112549,-0.21459961,-0.24780273,0.7821045,-1.0263062,0.06341553,-0.082336426,-1.0042725,-0.11102295,-0.03265381,-0.4658203,0.23822021,0.8312988
5.09375,326,-0.7836914,-0.36273193,-0.21807861,-0.41705322,-0.10205078,-0.5732422,-0.2625122,0.0680542,-0.9668579,-0.3729248,-0.300354,0.87994385,-1.0496216,0.13061523,-0.07324219,-0.9503174,-0.12286377,0.0028686523,-0.5715332,0.21240234,0.8931885
5.109375,327,-0.76464844,-0.36468506,-0.21807861,-0.39257812,-0.058044434,-0.61761475,-0.38635254,0.10443115,-0.9985962,-0.51727295,-0.41741943,1.0307007,-0.9938965,0.31658936,-0.15405273,-0.9259033,-0.0134887695,-0.019836426,-0.5064697,0.18463135,0.84124756
5.125,328,-0.7486572,-0.3392334,-0.21014404,-0.4251709,-0.011047363,-0.5703125,-0.55407715,0.12054443,-0.91326904,-0.7858887,-0.52056885,1.2203369,-0.9929199,0.33239746,-0.12677002,-0.9879761,0.0032348633,-0.0059814453,-0.44952393,0.20251465,0.8372803
5.140625,329,-0.77667236,-0.32751465,-0.2230835,-0.43737793,0.07409668,-0.5505371,-0.81762695,0.14886475,-0.80407715,-1.0023804,-0.494812,1.3959961,-0.90179443,0.11480713,-0.07019043,-1.0236206,-0.028320312,-0.0040283203,-0.4658203,0.23822021,0.8452759
5.15625,330,-0.81170654,-0.27667236,-0.30078125,-0.5963135,0.45770264,-0.37512207,-1.0392456,0.4800415,-0.5182495,-1.2258911,-1.2288818,1.4239502,-0.9584961,-0.09088135,-0.044921875,-0.9584961,-0.12286377,-0.041503906,-0.5237427,0.2243042,0.89715576
5.171875,331,-0.8057251,-0.30010986,-0.29083252,-0.86120605,0.72003174,-0.061645508,-1.3247681,0.34069824,-0.06970215,-1.3571777,-0.56427,1.4319458,-0.8491821,-0.17791748,-0.1116333,-0.92077637,-0.20166016,-0.019836426,-0.515625,0.10333252,0.84124756
5.1875,332,-0.8397827,-0.20617676,-0.20715332,-1.0944824,1.1584473,0.3602295,-1.4535522,0.29022217,0.36102295,-1.3582153,-0.4491577,1.1235352,-0.8269043,-0.28076172,-0.07928467,-0.96154785,-0.1071167,-0.029663086,-0.5298462,0.13110352,0.913147
5.203125,333,-0.8778076,-0.12402344,-0.11743164,-1.6273193,1.2680664,1.3637695,-1.1849976,0.09631348,1.5251465,-1.3562012,0.057739258,0.26507568,-0.89575195,-0.16998291,-0.02166748,-0.9747925,-0.036193848,-0.059265137,-0.49017334,0.18664551,0.8792114
5.21875,334,-0.93292236,-0.0770874,0.030029297,1.9135742,1.2288818,-1.9813232,-0.72875977,-0.09753418,-1.9746094,-1.3582153,0.66290283,-1.6984253,-0.9523926,0.008972168,-0.07525635,-0.9961548,-0.11895752,-0.0079956055,-0.44140625,0.1519165,0.87323
5.234375,335,-1.0370483,-0.061401367,-0.07757568,-0.67785645,1.0214233,0.5494995,-1.177002,0.11651611,-0.15307617,-1.2138672,0.52697754,-0.057373047,-0.98480225,0.035705566,-0.15911865,-1.0817261,-0.14654541,0.021606445,-0.44244385,0.16680908,0.880188
5.25,336,-1.0530396,-0.037963867,-0.32873535,-0.649292,0.26593018,0.381958,-0.81762695,-0.03289795,0.01763916,-1.0083618,0.33648682,-0.6173706,-1.0496216,0.0020751953,-0.20458984,-1.0837402,-0.032226562,0.051208496,-0.45666504,0.1350708,0.9011841
5.265625,337,-0.94091797,-0.15533447,-0.35064697,-0.5229492,-0.08642578,-0.012329102,-0.72180176,0.12054443,-0.25628662,-0.8770752,-0.10595703,-0.37182617,-1.1730957,0.051513672,-0.25915527,-1.069458,-0.0736084,0.08081055,-0.4576416,0.1965332,0.8931885
5.28125,338,-0.9138794,-0.31188965,-0.39349365,-0.51483154,-0.52874756,-0.034057617,-0.68981934,0.19329834,-0.3336792,-0.7407837,-0.592041,-0.2659912,-1.1872559,0.16229248,-0.2753296,-1.1183472,-0.19580078,0.03741455,-0.4790039,0.22729492,0.9081421
5.296875,339,-0.9298706,-0.4487915,-0.46124268,-0.55963135,-0.73620605,-5.493164E-4,-0.68182373,0.22155762,-0.38330078,-0.58044434,-0.97991943,-0.16015625,-1.1376343,0.05847168,-0.29351807,-1.1122437,-0.24505615,0.015686035,-0.4953003,0.19256592,0.91711426
5.3125,340,-0.93792725,-0.5623169,-0.5529175,-0.5963135,-0.62268066,0.12762451,-0.70477295,0.29223633,-0.32177734,-0.5543823,-0.890625,-0.12023926,-1.0637817,-0.21948242,-0.07220459,-1.0704956,-0.2312622,0.01373291,-0.5196533,0.10333252,0.90515137
5.328125,341,-0.8357544,-0.5545044,-0.5001221,-0.649292,-0.3173828,0.14929199,-0.80566406,0.29223633,-0.23242188,-0.6325073,-0.4640503,-0.0703125,-0.9706421,-0.37963867,0.05407715,-1.0317993,-0.2647705,0.11035156,-0.55218506,0.07952881,0.8632202
5.34375,342,-0.78967285,-0.5545044,-0.35461426,-1.4317017,0.24633789,0.20251465,-1.4995117,0.21343994,0.5456543,1.0603027,-0.25079346,0.94384766,-1.0435181,-0.36779785,0.08337402,-0.99108887,-0.2253418,0.17150879,-0.5786133,0.11126709,0.8522339
5.359375,343,-0.8788452,-0.42144775,-0.04272461,1.9135742,0.80023193,0.7515869,1.9933472,0.39520264,1.3922119,-0.4921875,0.20159912,1.5547485,-1.1123657,-0.1383667,0.06518555,-1.0083618,-0.1977539,0.24060059,-0.5765991,0.16082764,0.8253174
5.375,344,-1.0770874,-0.25708008,0.0579834,-1.71698,1.4020996,0.20056152,-1.8728638,0.881897,0.39678955,-0.6976929,1.046814,1.5587158,-1.2581177,0.07330322,-0.01361084,-1.12854,-0.14160156,0.28198242,-0.53082275,0.20648193,0.9011841
5.390625,345,-1.4876099,-0.053588867,-0.13336182,-0.9029541,1.3942871,-0.25683594,-1.0722046,0.9343872,0.08117676,-0.17248535,0.6846924,1.0875854,-1.4564819,0.26513672,0.06518555,-1.2436523,-0.14654541,0.2672119,-0.53082275,0.30566406,0.88916016
5.40625,346,-1.9862671,0.4590454,-0.47320557,-0.7104492,0.2033081,-0.1227417,-0.75671387,0.1730957,0.2121582,0.25750732,-0.061279297,0.649353,-1.524353,0.17016602,0.11975098,-1.3729858,-0.37902832,0.27215576,-0.5623779,0.36914062,0.93707275
5.421875,347,-1.8711548,0.576416,-0.3805542,-0.9182739,-0.8262329,0.15716553,-0.8366089,-0.48120117,0.2975464,0.25750732,-0.96203613,0.64733887,-1.500061,0.023803711,0.16931152,-1.4524536,-0.48150635,0.38061523,-0.611145,0.2758789,0.89715576
5.4375,348,-1.2903442,0.06768799,0.19647217,-1.130127,-1.1472778,0.14141846,-1.1610718,-0.76397705,0.22607422,0.0099487305,-1.0404053,0.8340454,-1.4534912,0.12176514,0.46032715,-1.5359497,-0.43023682,0.46350098,-0.73413086,0.34136963,1.1377563
5.453125,349,-0.9569092,-0.39013672,0.45159912,-1.1138306,-0.3173828,0.14337158,-1.1151123,-0.16015625,0.3213501,0.0029296875,-0.43530273,0.7930908,-1.492981,-0.19769287,1.2768555,-1.7111206,-0.140625,0.34417725,-0.9211426,0.6469116,1.2565308
5.46875,350,-0.895874,-0.44488525,0.27319336,-1.1322021,0.25219727,0.19464111,-0.92944336,0.13671875,0.59820557,0.13122559,-0.15252686,0.74017334,-1.0424805,-0.21746826,0.6452637,-1.6724243,0.06628418,-0.0040283203,-1.3348389,0.62109375,1.3643188
5.484375,351,-0.93792725,-0.2805786,0.1486206,-1.0282593,-0.044311523,0.052734375,-0.95336914,-0.014709473,0.3451538,0.14526367,-0.39660645,0.7741089,-1.2905273,0.36798096,-0.14801025,-1.4544678,0.15496826,-0.0040283203,-1.3562012,0.3840332,1.1456909
5.5,352,-0.9939575,-0.20617676,0.008117676,-0.9977417,-0.3682251,-0.010375977,-1.0412598,-0.15405273,0.2300415,0.07507324,-0.5860596,0.7302246,-1.4221191,0.4510498,-0.6279907,-1.2894897,0.26531982,-0.44592285,-1.25354,0.3255005,1.1167603
5.515625,353,-1.1221313,-0.16314697,-0.02178955,-0.9508667,-0.059020996,0.068481445,-0.88549805,0.027648926,0.35308838,0.1572876,-0.2904663,0.68530273,-1.395752,0.14648438,-1.1262207,-1.0083618,-0.028320312,-0.64123535,-0.86120605,0.67071533,0.84924316
5.53125,354,-1.0570679,-0.21014404,-0.15429688,-0.93048096,0.050598145,0.029052734,-0.88848877,0.015563965,0.31237793,0.121154785,-0.22003174,0.69226074,-1.4423218,-0.36383057,-0.9847412,-0.8199463,-0.33569336,-1.2744751,1.918396,1.4771118,1.6637573
5.546875,355,-0.8527832,-0.21014404,-0.027770996,-0.9263916,-0.061950684,0.044799805,-0.91345215,-0.022827148,0.29553223,0.11920166,-0.33410645,0.65734863,-1.2095337,-0.8029175,-0.52697754,-0.8148804,-0.56427,-1.7262573,1.918396,1.9968872,-1.9558105
5.5625,356,-0.65753174,-0.115234375,0.10876465,-0.9682007,-0.082458496,0.057617188,-0.92541504,-0.004638672,0.32330322,0.101135254,-0.3796997,0.6782837,-1.2884521,-0.6051636,-0.3480835,-0.75476074,-0.44995117,-0.67871094,-0.6690674,1.0961914,1.3303833
5.578125,357,-0.63049316,-0.030090332,0.12176514,-0.95495605,-0.004211426,0.022155762,-0.93444824,-6.1035156E-4,0.27172852,0.09313965,-0.29144287,0.67633057,-1.2662354,-0.16210938,-0.409729,-0.6977539,-0.24108887,-0.22302246,0.36358643,0.6588135,0.5218506
5.59375,358,-0.7506714,0.032470703,-0.0018310547,-0.9447632,0.105407715,-5.493164E-4,-0.9204712,0.10443115,0.29156494,0.078063965,-0.24182129,0.6663208,-1.1568604,-0.019714355,-0.286438,-0.5999756,-0.35144043,-0.5465698,0.39611816,0.2937622,0.61364746
5.609375,359,-0.9429321,0.028564453,-0.1453247,-0.9875488,0.08190918,-0.024169922,-1.00531,0.092285156,0.18835449,-0.0010986328,-0.2597046,0.6563721,-1.1143799,-0.06317139,-0.17022705,-0.43597412,-0.2765503,-0.5465698,0.1765747,-0.00579834,0.79138184
5.625,360,-1.1281738,0.07946777,-0.2808838,-0.9793701,0.12207031,-0.018249512,-0.94140625,0.082214355,0.21710205,-0.018127441,-0.26068115,0.70129395,-1.0516357,-0.09484863,-0.2571411,-0.3453369,-0.27264404,-0.7418213,-0.18933105,0.020996094,1.0708618
5.640625,361,-1.1661987,0.09899902,-0.24102783,-0.9844971,0.093688965,-0.024169922,-0.98236084,0.09631348,0.25878906,0.054016113,-0.28051758,0.66534424,-1.0111084,-0.1739502,-0.3258667,-0.35247803,-0.35931396,-0.7615967,-0.37634277,0.17572021,1.0947876
5.65625,362,-0.9749756,-0.033996582,-0.10644531,-0.99157715,0.068237305,-0.034057617,-0.96136475,0.06402588,0.18835449,0.012939453,-0.20709229,0.6972656,-0.90179443,-0.20959473,-0.37738037,-0.33111572,-0.4706421,-0.6826782,-0.43328857,0.24414062,1.0429077
5.671875,363,-0.79870605,-0.11425781,-0.04272461,-0.9437256,0.07800293,-0.10107422,-0.96936035,0.039794922,0.15661621,0.04498291,-0.23291016,0.6773071,-0.7944946,-0.22540283,-0.44207764,-0.3687744,-0.5248413,-0.67474365,-0.43023682,0.1449585,0.967041
5.6875,364,-0.71759033,-0.0927124,-0.04272461,-0.96307373,0.050598145,-0.108947754,-0.96539307,0.084228516,0.15661621,0.04498291,-0.25274658,0.67633057,-0.7904663,-0.16998291,-0.4451294,-0.39630127,-0.5169678,-0.7595825,-0.5014038,-0.06530762,1.006958
5.703125,365,-0.7966919,-0.051635742,-0.09649658,-0.9569702,0.07409668,-0.103027344,-0.96136475,0.06402588,0.13671875,0.023986816,-0.25079346,0.6782837,-0.762146,-0.117614746,-0.48553467,-0.3555298,-0.56427,-0.7260742,-0.670105,-0.26171875,1.086792
5.71875,366,-0.9309082,-0.014465332,-0.15930176,-0.9804077,0.093688965,-0.120788574,-0.9873047,0.0680542,0.12878418,-0.032165527,-0.30529785,0.68530273,-0.6427002,-0.14630127,-0.5239258,-0.3861084,-0.59576416,-0.7536621,-0.8967285,-0.32421875,1.2335815
5.734375,367,-1.0570679,0.05206299,-0.25897217,-0.95184326,0.089782715,-0.105041504,-0.96936035,0.11248779,0.1665039,0.020935059,-0.26068115,0.6782837,-0.52526855,-0.20562744,-0.5411377,-0.4003296,-0.5888672,-0.7655029,-1.1651001,-0.29248047,1.3433838
5.75,368,-1.0550537,0.09899902,-0.27392578,-0.97528076,0.11126709,-0.08135986,-0.96435547,0.07208252,0.15063477,0.023986816,-0.2626953,0.6633301,-0.46655273,-0.20263672,-0.5340576,-0.51849365,-0.50909424,-0.7359009,-1.520813,-0.15258789,1.4761353
5.765625,369,-0.9178467,0.12249756,-0.22607422,-0.9487915,0.068237305,-0.045837402,-0.9423828,0.05999756,0.18634033,0.0068969727,-0.24578857,0.62042236,-0.43414307,-0.24121094,-0.45013428,-0.69470215,-0.48937988,-0.72406006,-1.7942505,-0.041503906,1.5509644
5.78125,370,-0.7966919,0.06768799,-0.20715332,-0.95495605,0.042785645,-0.026123047,-0.96936035,0.0357666,0.1605835,-0.009094238,-0.22497559,0.6942749,-0.33294678,-0.22540283,-0.3369751,-0.9014282,-0.43811035,-0.5682373,1.9404907,-0.1942749,1.5599976
5.796875,371,-0.68756104,0.005126953,-0.19915771,-0.9650879,0.046691895,0.068481445,-0.92944336,0.023620605,0.20227051,0.014953613,-0.2487793,0.62438965,-0.3673706,-0.11462402,-0.11871338,-1.0817261,-0.2253418,-0.30584717,1.918396,-0.36883545,1.2675171
5.8125,372,-0.67852783,-0.006652832,-0.23400879,-0.95495605,0.038879395,0.10986328,-0.96136475,0.027648926,0.28363037,0.034973145,-0.24182129,0.642395,-0.46044922,0.035705566,0.22790527,-1.12854,-0.1307373,-0.20526123,1.918396,-0.38671875,0.8173218
5.828125,373,-0.7005615,-0.049682617,-0.2609253,-1.0038452,0.050598145,0.107910156,-0.9883423,0.015563965,0.27368164,0.033996582,-0.22003174,0.6663208,-0.604187,0.18603516,0.122802734,-1.0837402,-0.05291748,-0.055358887,1.918396,-0.21411133,0.21142578
5.84375,374,-0.76464844,-0.09661865,-0.22503662,-0.9977417,0.06237793,0.101989746,-0.9883423,0.092285156,0.26379395,0.008911133,-0.26861572,0.68530273,-0.9929199,0.20184326,0.7453003,-0.95544434,-0.3248291,-0.07702637,-1.7932129,-0.055419922,0.13555908
5.859375,375,-0.87384033,-0.26098633,-0.24102783,-1.0119629,0.10638428,0.092163086,-1.0012817,0.19329834,0.27368164,0.031982422,-0.15252686,0.6303711,-1.4970093,0.4866333,1.3162842,-0.9869995,-0.44207764,-0.3453369,-1.5513306,-0.17144775,-1.2389526
5.875,376,-0.9769287,-0.26879883,-0.27288818,-0.97125244,0.1651001,0.11187744,-0.98132324,0.14685059,0.18536377,-0.091308594,-0.328125,0.63238525,-1.7824707,0.42730713,1.4607544,-0.44921875,-0.5248413,-0.43408203,1.918396,-0.5533447,-0.90356445
5.890625,377,-0.9579468,-0.3529663,-0.25299072,-0.93865967,0.07897949,0.0211792,-0.9923096,0.09832764,0.17645264,0.0099487305,-0.2626953,0.63238525,-0.9402466,-0.3143921,1.4122314,-0.32092285,-0.2588501,-0.20922852,1.918396,-0.82910156,-1.3158569
5.90625,378,-0.8858032,-0.2962036,-0.14935303,-0.94677734,0.020263672,-0.06756592,-1.0012817,0.12463379,0.10498047,-0.047180176,-0.20910645,0.6463623,-0.19525146,-0.5458374,0.8190918,-0.4013672,-7.324219E-4,-0.10070801,1.918396,-0.85583496,-1.9257202
5.921875,379,-0.8778076,-0.29229736,-0.08557129,-0.942688,0.046691895,-0.108947754,-1.017273,0.07208252,0.11291504,-0.07824707,-0.23986816,0.6413574,-0.3652954,-0.26098633,1.2687378,-0.5969238,-0.14257812,-0.12237549,0.16027832,-0.4640503,-0.3166504
5.9375,380,-1.0159912,-0.26098633,0.097839355,-1.060852,-0.04724121,-0.12670898,-1.1210938,0.05596924,0.13671875,-0.051208496,-0.2765503,0.7072754,-0.786438,-0.1798706,-0.35113525,-1.9636841,-0.5455322,1.281189,0.59942627,-0.7130127,1.6378174
5.953125,381,-1.1181641,-0.26098633,0.14562988,-1.1057129,-0.19989014,-0.22625732,-1.137085,0.05596924,0.08911133,-0.051208496,-0.22991943,0.74017334,1.9564209,1.2207031E-4,0.95648193,-1.6123047,0.05645752,0.5621338,1.918396,1.1845093,1.0648804
5.96875,382,-1.2693481,-0.43707275,-0.049682617,-1.1016235,0.02709961,-0.32580566,-1.1450806,0.10040283,0.02557373,-0.10131836,-0.29937744,0.7341919,-1.9353027,-0.58935547,0.56848145,-1.480957,0.08892822,0.20507812,1.918396,0.6994629,1.5020752
5.984375,383,-1.5737305,-0.49969482,-0.0018310547,-1.1098022,0.12988281,-0.34552002,-1.118103,0.18518066,0.07324219,-0.12536621,-0.28649902,0.7341919,-1.1609497,-0.20562744,0.44415283,-1.510498,-0.32385254,-0.26641846,1.918396,0.71832275,-1.9558105
6.0,384,-1.4876099,-0.34313965,0.052001953,-1.4031982,0.22088623,-0.0064086914,-1.0921631,0.20941162,0.5515747,-0.028137207,-0.13171387,0.7581787,-1.5111694,-0.7475586,0.24407959,-1.2334595,-0.5012207,-0.9095459,-1.4019165,0.21142578,0.6855469
6.015625,385,-1.2373047,-0.17687988,0.13867188,-1.4439087,0.06335449,-0.07147217,-0.9663696,0.24377441,0.6925049,-0.16949463,-0.1763916,0.82702637,-0.6953125,0.051513672,-1.0160522,-1.1132812,-0.74554443,-0.78326416,-0.6040039,0.089416504,1.1456909
6.03125,386,-1.1952515,0.11468506,0.18951416,-1.7454834,0.22283936,0.5219116,-1.097168,0.19329834,1.1986694,0.014953613,-0.20812988,0.8100586,-0.3734131,-0.4468994,-1.5092163,-0.6692505,-0.15045166,-1.0693359,-0.6273804,0.49212646,0.7923584
6.046875,387,-1.071106,0.2878418,0.25524902,-1.5988159,0.24731445,0.57611084,-1.1849976,0.024658203,1.0319214,-0.3649292,-0.18133545,0.84002686,-0.5880127,0.011962891,-1.0807495,-0.86376953,0.026855469,-0.76452637,-0.5074463,0.1628418,0.8751831
6.0625,388,-0.98895264,0.10394287,0.31903076,-1.3328857,0.3569336,0.42138672,-1.2229614,0.03778076,0.77685547,-0.23461914,-0.26763916,0.84399414,-1.2277222,1.1947632,-0.6744995,-1.1448364,0.097839355,-0.621521,-0.49835205,0.3116455,0.80133057
6.078125,389,-0.8868408,-0.033996582,0.16461182,-1.1953735,0.37945557,0.20452881,-1.2648926,0.18920898,0.3729248,-0.4390869,-0.24182129,1.2382812,-1.1933594,0.8387451,-0.5895996,-1.222229,-0.2253418,-0.50213623,-0.5145874,0.23223877,0.8931885
6.09375,390,-0.89385986,-0.15631104,0.0758667,-1.1760254,0.6936035,-0.30218506,-1.3557129,0.36798096,0.07720947,-0.36090088,-0.5533447,1.5557251,-0.9453125,-0.19372559,-0.4663086,-0.9584961,-0.140625,-0.38183594,-0.5217285,0.24713135,0.86224365
6.109375,391,-0.99798584,-0.42340088,0.069885254,-1.1994629,0.4234619,-0.38891602,-1.2998047,0.28619385,-0.105407715,0.28753662,-0.70513916,1.5557251,-1.1103516,-0.46276855,-0.1560669,-0.9961548,-0.26867676,-0.17962646,-0.4729004,0.27191162,0.91015625
6.125,392,-1.0470581,-0.6796875,0.059936523,-1.2625732,0.23071289,-0.4046631,-1.2369385,0.18719482,-0.2741089,0.4298706,-0.57910156,1.3740234,-1.0374756,-0.25701904,0.05407715,-1.022644,-0.20562744,-0.18945312,-0.53082275,0.24810791,0.8442383
6.140625,393,-0.9098511,-0.8518677,0.06591797,-1.2218628,0.097595215,-0.3770752,-1.1410522,0.12866211,-0.3515625,0.48901367,-0.44519043,1.2752075,-0.97772217,-0.07110596,0.03491211,-1.0134888,-0.32287598,-0.111572266,-0.5217285,0.3116455,0.8372803
6.15625,394,-0.7576904,-0.7814331,0.12768555,-1.142395,0.031066895,-0.32977295,-0.98236084,0.05999756,-0.41900635,0.4920044,-0.40948486,1.1394653,-0.95648193,0.03173828,-0.018676758,-0.98291016,-0.055908203,-0.10467529,-0.52679443,0.32354736,0.8792114
6.171875,395,-0.65753174,-0.55841064,0.11975098,-1.0629272,0.045715332,-0.3060913,-0.87353516,0.06402588,-0.46862793,0.4840088,-0.2874756,1.0137329,-0.91296387,0.19787598,-0.078308105,-0.9686279,0.0072021484,-0.09674072,-0.5135498,0.32946777,0.83026123
6.1875,396,-0.7005615,-0.41357422,0.030029297,-1.0292969,0.02709961,-0.27453613,-0.78967285,0.090270996,-0.5302124,0.4609375,-0.23291016,0.9138794,-0.8977661,0.055480957,-0.045959473,-0.993103,-0.059814453,-0.07110596,-0.515625,0.26202393,0.8532715
6.203125,397,-0.76568604,-0.3236084,-0.01776123,-1.0119629,0.068237305,-0.31793213,-0.7247925,0.11248779,-0.5857544,0.41888428,-0.15356445,0.86395264,-0.9523926,-0.02758789,-0.09240723,-0.96154785,-0.1583252,-0.12634277,-0.47698975,0.3036499,0.8532715
6.21875,398,-0.8097534,-0.26098633,-0.037719727,-0.97125244,0.07800293,-0.32977295,-0.67681885,0.16900635,-0.59765625,0.3817749,-0.099975586,0.79107666,-0.9544678,-0.122558594,-0.078308105,-0.95544434,-0.2253418,-0.1194458,-0.5623779,0.3116455,0.85723877
6.234375,399,-0.79974365,-0.23944092,-0.06762695,-0.88568115,0.105407715,-0.32580566,-0.60198975,0.18518066,-0.62145996,0.32666016,-0.07220459,0.74920654,-0.9301758,-0.14233398,-0.11468506,-1.0114136,-0.2006836,-0.037597656,-0.46984863,0.28778076,0.8173218
6.25,400,-0.81573486,-0.14752197,-0.07757568,-0.8184204,0.10638428,-0.32385254,-0.5620117,0.20135498,-0.56988525,0.23944092,-0.045410156,0.73223877,-0.9281006,-0.10668945,-0.13995361,-0.9941406,-0.103149414,-0.081970215,-0.52575684,0.30169678,0.8162842
6.265625,401,-0.8016968,-0.35101318,-0.113464355,-0.8245239,0.113220215,-0.24694824,-0.6409302,0.26800537,-0.60162354,0.03100586,0.021057129,0.6703491,-0.90789795,-0.03552246,-0.18841553,-0.9564209,-0.0736084,-0.1875,-0.55114746,0.2798462,0.8632202
6.28125,402,-0.7486572,-0.2883911,-0.045715332,-0.743042,0.113220215,-0.272583,-0.56103516,0.22961426,-0.63342285,-0.003112793,-0.082092285,0.70025635,-0.9099121,0.047546387,-0.21875,-0.93914795,-0.09136963,-0.055358887,-0.53082275,0.31359863,0.8592529
6.296875,403,-0.76464844,-0.2805786,-0.01977539,-0.6900635,0.10736084,-0.31396484,-0.53808594,0.21343994,-0.6810303,-0.023132324,-0.068237305,0.71221924,-0.88256836,0.15435791,-0.14294434,-0.93200684,0.022949219,0.10247803,-0.4953003,0.36914062,0.7494507
6.3125,404,-0.7486572,-0.27667236,-0.06762695,-0.6655884,0.07409668,-0.32086182,-0.54608154,0.22558594,-0.66119385,-0.10235596,-0.11883545,0.762146,-0.91192627,0.23345947,-4.8828125E-4,-0.8820801,0.07318115,0.11431885,-0.5145874,0.2421875,0.83325195
6.328125,405,-0.7836914,-0.3040161,-0.08557129,-0.6900635,0.07800293,-0.33764648,-0.60998535,0.21142578,-0.66711426,-0.21154785,-0.1694336,0.8340454,-1.0333862,0.25524902,0.035888672,-0.8820801,-0.22436523,0.089660645,-0.49121094,0.17272949,0.86120605
6.34375,406,-0.8217163,-0.33532715,-0.1383667,-0.67785645,0.051574707,-0.3829956,-0.6588745,0.18218994,-0.66516113,-0.28271484,-0.24481201,0.9258423,-1.116394,0.14251709,0.008605957,-0.97784424,-0.3711548,0.038391113,-0.5014038,0.17474365,0.86621094
6.359375,407,-0.8618164,-0.39404297,-0.18621826,-0.67785645,0.068237305,-0.39086914,-0.75372314,0.23364258,-0.63739014,-0.42303467,-0.27954102,0.9867554,-1.1123657,-0.051330566,-0.14801025,-1.0063477,-0.29821777,-0.16680908,-0.48712158,0.18566895,0.8762207
6.375,408,-0.8577881,-0.4175415,-0.23400879,-0.6655884,0.105407715,-0.39678955,-0.80462646,0.24176025,-0.61950684,-0.53027344,-0.34399414,1.0715942,-0.92004395,-0.25701904,-0.2642212,-1.0480957,-0.2588501,-0.28710938,-0.51867676,0.16082764,0.8173218
6.390625,409,-0.8417969,-0.4331665,-0.28186035,-0.66967773,0.24633789,-0.3494873,-0.93743896,0.24176025,-0.54211426,-0.68463135,-0.4194336,1.142456,-0.7783203,-0.32824707,-0.25915527,-0.97784424,-0.28442383,-0.29797363,-0.49627686,0.17272949,0.84924316
6.40625,410,-0.80670166,-0.35491943,-0.23901367,-0.64727783,0.43426514,-0.28833008,-1.0282593,0.24176025,-0.4428711,-0.82995605,-0.40454102,1.1793823,-0.72772217,-0.3163452,-0.2975464,-0.963562,-0.2647705,-0.2654419,-0.47698975,0.15093994,0.8671875
6.421875,411,-0.80670166,-0.24926758,-0.19317627,-0.7206421,0.67303467,-0.12475586,-1.137085,0.36291504,-0.22650146,-0.98931885,-0.45812988,1.1295166,-0.798584,-0.17791748,-0.29962158,-0.96765137,-0.24993896,-0.06713867,-0.48205566,0.20843506,0.84924316
6.4375,412,-0.79974365,-0.18664551,-0.17321777,-0.7878418,0.8638916,0.013305664,-1.1610718,0.27001953,-0.09350586,-1.1506958,-0.22296143,0.99176025,-1.0293579,-0.09484863,-0.13995361,-0.98187256,-0.06768799,0.18927002,-0.49017334,0.19158936,0.81829834
6.453125,413,-0.836792,-0.15142822,-0.17919922,-1.0445557,0.8530884,0.31982422,-1.2399292,0.1730957,0.2866211,-1.0735474,0.0289917,0.6314087,-1.1275635,0.0079956055,0.0914917,-0.9177246,-0.07952881,0.30566406,-0.48205566,0.2630005,0.84924316
6.46875,414,-0.89385986,-0.19836426,-0.13336182,-1.5152588,0.8256836,1.0769043,-1.0412598,0.019592285,1.074585,-1.3582153,0.21746826,-0.26098633,-1.1619263,0.17218018,0.1642456,-0.9472656,-0.06768799,0.33032227,-0.444458,0.14697266,0.8981323
6.484375,415,-0.94488525,-0.31188965,-0.11743164,-1.6293335,0.770874,1.4327393,-0.8485718,0.06402588,1.2581787,-1.3562012,0.5150757,-1.055542,-1.1022339,0.10687256,0.059143066,-0.9890137,-0.1071167,0.19519043,-0.46173096,0.19256592,0.8851929
6.5,416,-1.0,-0.35101318,-0.19317627,-0.6044922,0.7043457,0.3484497,-1.0332642,0.20941162,-0.2592163,-1.0685425,0.42578125,-0.08129883,-1.1154175,0.057434082,-0.19146729,-1.0042725,-0.19873047,0.06500244,-0.4953003,0.20446777,0.8502197
6.515625,417,-0.98895264,-0.31188965,-0.2769165,-0.63708496,0.01928711,0.45489502,-0.69781494,-0.016784668,-0.081604004,-1.1506958,0.33251953,-0.48162842,-1.0698242,0.269104,-0.4613037,-1.0674438,-0.13665771,-0.059265137,-0.4749756,0.099365234,0.94506836
6.53125,418,-0.9188843,-0.3236084,-0.34265137,-0.56781006,-0.1685791,0.18481445,-0.67785645,0.2276001,-0.25823975,-0.9692993,-0.27954102,-0.43865967,-1.0880737,0.23944092,-0.47442627,-1.0857544,-0.13171387,-0.06121826,-0.41394043,0.1628418,0.9390869
6.546875,419,-0.87280273,-0.36468506,-0.3725586,-0.53009033,-0.54241943,0.03100586,-0.66986084,0.29223633,-0.3862915,-0.7307739,-0.6515503,-0.27593994,-1.1315918,0.035705566,-0.21569824,-1.0939331,-0.24505615,0.03540039,-0.47088623,0.11920166,0.91711426
6.5625,420,-0.79870605,-0.40576172,-0.4383545,-0.5637207,-0.5522461,-0.0025024414,-0.70880127,0.32250977,-0.41705322,-0.61950684,-0.73291016,-0.16418457,-1.1143799,-0.16998291,-0.026733398,-1.0236206,-0.31201172,0.17352295,-0.527771,0.19854736,0.91516113
6.578125,421,-0.8387451,-0.42144775,-0.49212646,-0.5963135,-0.30169678,0.0034179688,-0.74572754,0.38311768,-0.3932495,-0.6165161,-0.47894287,-0.10028076,-1.0131226,-0.37963867,0.05407715,-0.963562,-0.27557373,0.18829346,-0.51153564,0.17871094,0.90216064
6.59375,422,-0.83776855,-0.4487915,-0.48913574,-0.5881958,-0.03161621,-0.026123047,-0.78564453,0.33465576,-0.34954834,-0.67059326,-0.076171875,0.01550293,-0.9503784,-0.48449707,0.12683105,-0.94421387,-0.29034424,0.11035156,-0.54711914,0.15985107,0.86621094
6.609375,423,-0.7886963,-0.40185547,-0.20214844,1.9135742,0.5595093,0.9458008,-1.8289185,-0.42468262,1.7871704,-0.007080078,-0.17736816,-0.36480713,-0.8491821,-0.3955078,0.105651855,-0.9014282,-0.315979,0.05908203,-0.53900146,0.083496094,0.89416504
6.625,424,-0.9248657,-0.25317383,0.052978516,1.9135742,0.50860596,0.43121338,1.9933472,0.6779175,0.35906982,-0.91119385,0.4317627,1.4778442,-0.9099121,-0.24121094,-0.010559082,-1.0338135,-0.21844482,0.026550293,-0.527771,0.14202881,0.9041748
6.640625,425,-1.1401978,-0.15533447,0.08782959,-1.1362915,0.9039917,-0.016296387,-1.2619019,0.5527344,0.2468872,-0.06121826,-0.020629883,0.93084717,-1.2307739,-0.03552246,-0.12072754,-1.1376953,-0.19378662,0.09265137,-0.5237427,0.15093994,0.8652344
6.65625,426,-1.6828613,0.07165527,-0.20513916,-0.7776489,0.340271,0.074401855,-0.74572754,0.4315796,0.39379883,0.32965088,-0.10992432,0.5755005,-1.4524536,0.12670898,-0.040893555,-1.2110596,-0.31201172,0.2553711,-0.54815674,0.25109863,0.967041
6.671875,427,1.9546509,0.52948,-0.48913574,-0.9650879,-0.27819824,0.24786377,-0.80566406,-0.1459961,0.513855,0.32263184,-0.6832886,0.6663208,-1.4615479,0.14251709,0.0904541,-1.2548218,-0.49725342,0.32739258,-0.60302734,0.15490723,0.97698975
6.6875,428,-1.6098022,0.25946045,0.1296997,-1.1433716,-0.5522461,0.10394287,-1.1340942,-0.40045166,0.28955078,0.043029785,-0.68029785,0.8210449,-1.3411255,0.16723633,0.3178711,-1.3617554,-0.47460938,0.26324463,-0.63653564,0.17572021,1.0169678
6.703125,429,-1.1361694,-0.2805786,0.3708496,-1.0639648,-0.20092773,-0.07940674,-1.1590576,-0.12176514,0.14068604,-0.010131836,-0.23388672,0.888916,-1.3897095,0.22558594,0.75946045,-1.6663208,-0.17211914,0.1932373,-0.670105,0.6826172,1.2944336
6.71875,430,-0.9248657,-0.4761963,0.3031006,-1.1220093,0.050598145,-0.059692383,-1.0871582,0.03375244,0.27172852,0.020935059,-0.3182373,0.89489746,-1.2641602,0.11383057,0.22991943,-1.7773438,0.08502197,0.01373291,-0.7097168,1.0436401,1.3173828
6.734375,431,-1.0339966,-0.35101318,0.21740723,-1.0894165,-0.074645996,-0.045837402,-1.0392456,-0.018798828,0.24389648,0.0680542,-0.42633057,0.7930908,-1.2641602,-0.14630127,-0.15203857,-1.4880981,0.22192383,0.07092285,-0.93743896,0.76293945,1.2425537
6.75,432,-1.1131592,-0.20617676,0.041992188,-1.0119629,-0.12945557,-0.0044555664,-1.0003052,-0.057128906,0.25982666,0.11315918,-0.4432373,0.74121094,-1.4767456,0.08319092,-0.34606934,-1.3149414,0.1293335,-0.38671875,-0.6273804,0.19458008,1.0099487
6.765625,433,-1.1582031,-0.13970947,0.012084961,-1.0466309,-0.0022583008,0.11578369,-0.93341064,0.023620605,0.4543457,0.17327881,-0.25476074,0.70129395,-1.4767456,0.027770996,-0.7381592,-1.227356,0.03869629,-0.36901855,-0.8977661,-0.035583496,1.1906128
6.78125,434,-1.0770874,-0.20227051,-0.06359863,-0.9610596,0.05847168,0.05859375,-0.8944702,0.043823242,0.33721924,0.15924072,-0.2388916,0.7022705,-1.3492432,-0.16210938,-0.9058838,-1.0562134,-0.520874,-1.2093506,-1.491333,0.21240234,1.0658569
6.796875,435,-0.8577881,-0.2374878,-0.055664062,-0.9487915,-0.03552246,0.009338379,-0.93640137,0.05596924,0.2994995,0.11517334,-0.3529663,0.69628906,-1.4261475,-0.5734863,-0.6765137,-0.7588501,-0.9701538,-1.1758423,-1.9873657,-0.031555176,-1.9559326
6.8125,436,-0.6565552,-0.15924072,0.09185791,-0.93048096,0.02709961,0.03692627,-0.90948486,0.10644531,0.27764893,0.13623047,-0.28253174,0.6703491,-1.1953735,-0.9295044,-0.4946289,-0.8128052,-0.7731323,-1.5269775,1.918396,1.506897,-1.9558105
6.828125,437,-0.60443115,-0.030090332,0.13171387,-0.9834595,0.042785645,0.034973145,-0.94140625,0.025634766,0.2975464,0.09112549,-0.25769043,0.70129395,-1.2561035,-0.5734863,-0.35009766,-0.71710205,-0.41845703,-0.24865723,-0.3824463,1.4245605,0.76538086
6.84375,438,-0.75164795,0.07165527,0.021057129,-0.9589844,0.031066895,0.02709961,-0.94537354,0.07208252,0.27764893,0.09313965,-0.27355957,0.68927,-1.1599121,-0.21746826,-0.30462646,-0.6804199,-0.12878418,-0.4814453,0.4500122,1.0515747,0.24835205
6.859375,439,-1.0020142,0.04425049,-0.18621826,-0.9508667,0.07897949,0.04284668,-0.89349365,0.10040283,0.31536865,0.1081543,-0.28051758,0.66833496,-1.0941162,-0.07110596,-0.20159912,-0.45739746,0.018981934,-0.37097168,0.1694336,0.5675049,0.41503906
6.875,440,-1.1862183,0.04425049,-0.30480957,-0.95495605,0.09954834,0.05859375,-0.93341064,0.10845947,0.2994995,0.10211182,-0.28051758,0.6743164,-1.06781,-0.06713867,-0.21569824,-0.41156006,0.070251465,-0.7852173,-0.28790283,0.123168945,0.98101807
6.890625,441,-1.1491699,0.024658203,-0.26690674,-0.93865967,0.076049805,0.03100586,-0.88952637,0.05999756,0.27172852,0.10412598,-0.2874756,0.66534424,-1.0273438,-0.14630127,-0.23492432,-0.38000488,-0.4066162,-0.7576294,-0.45458984,-0.0018310547,1.1886597
6.90625,442,-0.9178467,-0.0770874,-0.14733887,-1.0038452,0.08190918,0.038879395,-1.0152588,0.084228516,0.24890137,-0.046203613,-0.30529785,0.69226074,-0.91900635,-0.18585205,-0.32891846,-0.4237671,-0.8007202,-0.72802734,-0.3753662,-0.015686035,1.1137695
6.921875,443,-0.7526245,-0.13970947,-0.07757568,-0.9834595,0.07897949,0.02709961,-0.93743896,0.05596924,0.2300415,-0.014099121,-0.28448486,0.68530273,-0.8734741,-0.24914551,-0.38146973,-0.3463745,-0.83618164,-0.67474365,-0.2788086,-0.041503906,0.99298096
6.9375,444,-0.72161865,-0.15142822,-0.09753418,-0.9610596,0.046691895,0.0063476562,-0.958374,0.084228516,0.27172852,0.06604004,-0.265625,0.67633057,-0.85321045,-0.25305176,-0.40368652,-0.34838867,-0.6223755,-0.6826782,-0.29608154,-0.21014404,0.9800415
6.953125,445,-0.8497925,-0.06530762,-0.17919922,-0.9804077,0.042785645,-0.0025024414,-0.97735596,0.015563965,0.22210693,0.036987305,-0.2487793,0.7072754,-0.77020264,-0.24914551,-0.42694092,-0.322937,-0.5012207,-0.70635986,-0.40075684,-0.362854,0.9989624
6.96875,446,-0.9598999,-0.006652832,-0.23400879,-0.97528076,0.05255127,-0.008422852,-0.98236084,0.06402588,0.21813965,0.037963867,-0.25671387,0.70428467,-0.6831665,-0.20959473,-0.4613037,-0.28729248,-0.5336914,-0.7576294,-0.5552368,-0.5701904,1.1227417
6.984375,447,-1.0239868,0.06378174,-0.27288818,-0.9793701,0.04473877,-0.018249512,-0.97735596,0.09631348,0.21813965,0.050048828,-0.24182129,0.6982422,-0.604187,-0.22937012,-0.4824829,-0.28936768,-0.5740967,-0.7536621,-0.7310791,-0.66241455,1.1387329
7.0,448,-1.0220337,0.14990234,-0.28881836,-0.9834595,0.050598145,-0.04095459,-0.9673462,0.043823242,0.21710205,0.052001953,-0.2616577,0.65234375,-0.47869873,-0.17791748,-0.57244873,-0.33111572,-0.6154785,-0.7852173,-0.961792,-0.6485596,1.2225952
