type,ID,seq,packetLoss,nodeTimestamp,bsTimestamp,syncTimestamp,systemTime,accelX,accelY,accelZ,cannula,voltage
1,5,12,0,3381072,260845275,-4832264612483280655,1361362539.607106,15752,-3532,-2064,nan,0.000000
1,5,12,1,3381072,260845275,-4832264612483278034,1361362539.607106,15236,-3660,-500,nan,0.000000
2,5,13,1,3381072,260845307,-4832264612483275413,1361362539.607278,14832,-4604,-760,nan,0.000000
2,5,13,1,3381072,260845307,-4832264612483272792,1361362539.607278,15104,-1416,132,nan,0.000000
2,5,13,1,3381072,260845307,-4832264612483270171,1361362539.607278,17268,-2888,-796,nan,0.000000
2,5,13,1,3381072,260845307,-4832264612483267550,1361362539.607278,18632,-4140,-220,nan,0.000000
2,5,13,1,3381072,260845307,-4832264612483264929,1361362539.607278,13420,-5164,-3024,nan,0.000000
2,5,14,1,3381072,260845339,-4832264612483262308,1361362539.607505,15488,-4688,-4004,nan,0.000000
2,5,14,1,3381072,260845339,-4832264612483259687,1361362539.607505,15232,-1428,-2600,nan,0.000000
2,5,14,1,3381072,260845339,-4832264612483257066,1361362539.607505,14792,-932,-1260,nan,0.000000
2,5,14,1,3381072,260845339,-4832264612483254445,1361362539.607505,15688,-1988,-2040,nan,0.000000
2,5,14,1,3381072,260845339,-4832264612483251824,1361362539.607505,15876,-1000,-2236,nan,0.000000
2,5,15,1,3381072,260845371,-4832264612483249203,1361362539.607733,15996,-92,-1364,nan,0.000000
2,5,15,1,3381072,260845371,-4832264612483246582,1361362539.607733,16344,-916,-3620,nan,0.000000
2,5,15,1,3381072,260845371,-4832264612483243961,1361362539.607733,19764,-3744,-2524,nan,0.000000
2,5,15,1,3381072,260845371,-4832264612483241340,1361362539.607733,14572,-5148,-4028,nan,0.000000
2,5,15,1,3381072,260845371,-4832264612483238719,1361362539.607733,13112,-3412,104,nan,0.000000
2,5,0,1,3381072,260845402,-4832264612483236098,1361362539.607986,16956,-4356,-796,nan,0.000000
2,5,0,1,3381072,260845402,-4832264612483233477,1361362539.607986,13764,-4572,-444,nan,0.000000
2,5,0,1,3381072,260845402,-4832264612483230856,1361362539.607986,14680,-3892,316,nan,0.000000
2,5,0,1,3381072,260845402,-4832264612483228235,1361362539.607986,14896,-4052,260,nan,0.000000
2,5,0,1,3381072,260845402,-4832264612483225614,1361362539.607986,14344,-3976,256,nan,0.000000
2,5,1,1,3381072,260845434,-4832264612483222993,1361362539.608289,15228,-3656,-268,nan,0.000000
2,5,1,1,3381072,260845434,-4832264612483220372,1361362539.608289,20204,-3756,-352,nan,0.000000
2,5,1,1,3381072,260845434,-4832264612483217751,1361362539.608289,15336,-6568,-112,nan,0.000000
2,5,1,1,3381072,260845434,-4832264612483215130,1361362539.608289,12756,-5288,-2672,nan,0.000000
2,5,1,1,3381072,260845434,-4832264612483212509,1361362539.608289,17192,-3984,-3440,nan,0.000000
2,5,2,1,3381072,260845468,-4832264612483209888,1361362541.977174,14684,-3852,-2912,nan,0.000000
2,5,2,1,3381072,260845468,-4832264612483207267,1361362541.977174,15428,-2188,-2444,nan,0.000000
2,5,2,1,3381072,260845468,-4832264612483204646,1361362541.977174,15992,-984,-2328,nan,0.000000
2,5,2,1,3381072,260845468,-4832264612483202025,1361362541.977174,15544,-1376,-2896,nan,0.000000
2,5,2,1,3381072,260845468,-4832264612483199404,1361362541.977174,16040,-736,-3824,nan,0.000000
1,5,3,0,3462398,260926606,8428052358021030132,1361362541.978951,17592,-4948,-992,nan,0.000000
1,5,3,0,3462398,260926606,8428052358021032753,1361362541.978951,15220,-2512,1588,nan,0.000000
2,5,4,0,3462398,260926638,8428052358021035374,1361362541.979628,15440,-3396,-176,nan,0.000000
2,5,4,0,3462398,260926638,8428052358021037995,1361362541.979628,15108,-3064,252,nan,0.000000
2,5,4,0,3462398,260926638,8428052358021040616,1361362541.979628,14884,-3460,-296,nan,0.000000
2,5,4,0,3462398,260926638,8428052358021043237,1361362541.979628,14520,-3636,-60,nan,0.000000
2,5,4,0,3462398,260926638,8428052358021045858,1361362541.979628,16356,-2704,444,nan,0.000000
2,5,5,0,3462398,260926670,8428052358021048479,1361362541.980988,15260,-3516,324,nan,0.000000
2,5,5,0,3462398,260926670,8428052358021051100,1361362541.980988,18564,-4928,-1224,nan,0.000000
2,5,5,0,3462398,260926670,8428052358021053721,1361362541.980988,15688,-7628,-1180,nan,0.000000
2,5,5,0,3462398,260926670,8428052358021056342,1361362541.980988,14580,-3904,-1328,nan,0.000000
2,5,5,0,3462398,260926670,8428052358021058963,1361362541.980988,14992,-4084,-1052,nan,0.000000
2,5,6,0,3462398,260926702,8428052358021061584,1361362541.981783,14312,-3992,-1416,nan,0.000000
2,5,6,0,3462398,260926702,8428052358021064205,1361362541.981783,14944,-1596,-292,nan,0.000000
2,5,6,0,3462398,260926702,8428052358021066826,1361362541.981783,15488,-1348,-856,nan,0.000000
2,5,6,0,3462398,260926702,8428052358021069447,1361362541.981783,16196,-3568,-1260,nan,0.000000
2,5,6,0,3462398,260926702,8428052358021072068,1361362541.981783,15972,-2680,-1256,nan,0.000000
2,5,7,0,3462398,260926734,8428052358021074689,1361362541.982917,18896,-3772,-3464,nan,0.000000
2,5,7,0,3462398,260926734,8428052358021077310,1361362541.982917,14320,-5892,-2108,nan,0.000000
2,5,7,0,3462398,260926734,8428052358021079931,1361362541.982917,16116,-4296,640,nan,0.000000
2,5,7,0,3462398,260926734,8428052358021082552,1361362541.982917,14456,-5632,-1108,nan,0.000000
2,5,7,0,3462398,260926734,8428052358021085173,1361362541.982917,13984,-3440,580,nan,0.000000
2,5,8,0,3462398,260926766,8428052358021087794,1361362541.983814,14256,-2368,1796,nan,0.000000
2,5,8,0,3462398,260926766,8428052358021090415,1361362541.983814,14120,-3208,312,nan,0.000000
2,5,8,0,3462398,260926766,8428052358021093036,1361362541.983814,18672,-6736,644,nan,0.000000
2,5,8,0,3462398,260926766,8428052358021095657,1361362541.983814,20936,-5560,-3140,nan,0.000000
2,5,8,0,3462398,260926766,8428052358021098278,1361362541.983814,9944,-1540,-3120,nan,0.000000
2,5,9,0,3462398,260926798,8428052358021100899,1361362544.459211,16964,-4192,-3456,nan,0.000000
2,5,9,0,3462398,260926798,8428052358021103520,1361362544.459211,14316,-1696,-3400,nan,0.000000
2,5,9,0,3462398,260926798,8428052358021106141,1361362544.459211,14776,-1828,-3376,nan,0.000000
2,5,9,0,3462398,260926798,8428052358021108762,1361362544.459211,14592,-468,-2488,nan,0.000000
2,5,9,0,3462398,260926798,8428052358021111383,1361362544.459211,15500,8,-1916,nan,0.000000
1,5,10,0,3543721,261007933,-5119923199840648974,1361362544.461173,20484,1356,-1940,nan,0.000000
1,5,10,0,3543721,261007933,-5119923199840646353,1361362544.461173,13664,-5452,-5240,nan,0.000000
2,5,11,0,3543721,261007965,-5119923199840643732,1361362544.461510,15212,-4128,-2492,nan,0.000000
2,5,11,0,3543721,261007965,-5119923199840641111,1361362544.461510,16016,-3020,-1720,nan,0.000000
2,5,11,0,3543721,261007965,-5119923199840638490,1361362544.461510,14052,-700,-328,nan,0.000000
2,5,11,0,3543721,261007965,-5119923199840635869,1361362544.461510,14684,-2216,-484,nan,0.000000
2,5,11,0,3543721,261007965,-5119923199840633248,1361362544.461510,14248,-1688,-312,nan,0.000000
2,5,12,0,3543721,261007997,-5119923199840630627,1361362544.462977,15092,-3628,-1244,nan,0.000000
2,5,12,0,3543721,261007997,-5119923199840628006,1361362544.462977,21092,-836,444,nan,0.000000
2,5,12,0,3543721,261007997,-5119923199840625385,1361362544.462977,17892,-6336,-4088,nan,0.000000
2,5,12,0,3543721,261007997,-5119923199840622764,1361362544.462977,12080,-1244,-4476,nan,0.000000
2,5,12,0,3543721,261007997,-5119923199840620143,1361362544.462977,16916,-2200,-3644,nan,0.000000
2,5,13,0,3543721,261008029,-5119923199840617522,1361362544.463446,13844,-1528,-3408,nan,0.000000
2,5,13,0,3543721,261008029,-5119923199840614901,1361362544.463446,14952,-76,-2444,nan,0.000000
2,5,13,0,3543721,261008029,-5119923199840612280,1361362544.463446,14572,-684,-2704,nan,0.000000
2,5,13,0,3543721,261008029,-5119923199840609659,1361362544.463446,15212,-1064,-2852,nan,0.000000
2,5,13,0,3543721,261008029,-5119923199840607038,1361362544.463446,18588,-2628,-2264,nan,0.000000
2,5,14,0,3543721,261008061,-5119923199840604417,1361362544.464976,20144,-3076,-4288,nan,0.000000
2,5,14,0,3543721,261008061,-5119923199840601796,1361362544.464976,11468,-4696,-2600,nan,0.000000
2,5,14,0,3543721,261008061,-5119923199840599175,1361362544.464976,16912,-5700,-2624,nan,0.000000
2,5,14,0,3543721,261008061,-5119923199840596554,1361362544.464976,15208,-3376,-776,nan,0.000000
2,5,14,0,3543721,261008061,-5119923199840593933,1361362544.464976,13632,-4496,-824,nan,0.000000
2,5,15,0,3543721,261008093,-5119923199840591312,1361362544.465493,14428,-4908,444,nan,0.000000
2,5,15,0,3543721,261008093,-5119923199840588691,1361362544.465493,14112,-3496,892,nan,0.000000
2,5,15,0,3543721,261008093,-5119923199840586070,1361362544.465493,15932,-4024,816,nan,0.000000
2,5,15,0,3543721,261008093,-5119923199840583449,1361362544.465493,17576,-1340,1620,nan,0.000000
2,5,15,0,3543721,261008093,-5119923199840580828,1361362544.465493,15372,-4464,764,nan,0.000000
2,5,0,0,3543721,261008125,-5119923199840578207,1361362546.943171,15080,-3272,1140,nan,0.000000
2,5,0,0,3543721,261008125,-5119923199840575586,1361362546.943171,17340,-7016,-2928,nan,0.000000
2,5,0,0,3543721,261008125,-5119923199840572965,1361362546.943171,16404,-4488,-2080,nan,0.000000
2,5,0,0,3543721,261008125,-5119923199840570344,1361362546.943171,14552,-4264,-1352,nan,0.000000
2,5,0,0,3543721,261008125,-5119923199840567723,1361362546.943171,15176,-2768,-2148,nan,0.000000
1,5,1,0,3625044,261089263,-8001602529752026108,1361362546.944377,15844,-1416,-2016,nan,0.000000
1,5,1,0,3625044,261089263,-8001602529752023487,1361362546.944377,16068,-852,-1428,nan,0.000000
2,5,2,0,3625044,261089294,-8001602529752020866,1361362546.944920,15312,-1780,-780,nan,0.000000
2,5,2,0,3625044,261089294,-8001602529752018245,1361362546.944920,16528,-592,504,nan,0.000000
2,5,2,0,3625044,261089294,-8001602529752015624,1361362546.944920,19244,-2700,560,nan,0.000000
2,5,2,0,3625044,261089294,-8001602529752013003,1361362546.944920,14628,-6100,-3936,nan,0.000000
2,5,2,0,3625044,261089294,-8001602529752010382,1361362546.944920,15944,-4948,-1108,nan,0.000000
2,5,3,0,3625044,261089326,-8001602529752007761,1361362546.945628,15392,-3064,-280,nan,0.000000
2,5,3,0,3625044,261089326,-8001602529752005140,1361362546.945628,13924,-3208,916,nan,0.000000
2,5,3,0,3625044,261089326,-8001602529752002519,1361362546.945628,14504,-3068,1480,nan,0.000000
2,5,3,0,3625044,261089326,-8001602529751999898,1361362546.945628,14160,-2360,2168,nan,0.000000
2,5,3,0,3625044,261089326,-8001602529751997277,1361362546.945628,14440,-3932,1176,nan,0.000000
2,5,4,0,3625044,261089358,-8001602529751994656,1361362546.946217,21496,-2244,2036,nan,0.000000
2,5,4,0,3625044,261089358,-8001602529751992035,1361362546.946217,17428,-7176,-864,nan,0.000000
2,5,4,0,3625044,261089358,-8001602529751989414,1361362546.946217,12136,-2676,-1984,nan,0.000000
2,5,4,0,3625044,261089358,-8001602529751986793,1361362546.946217,17500,-2960,-1480,nan,0.000000
2,5,4,0,3625044,261089358,-8001602529751984172,1361362546.946217,13812,-2148,-1432,nan,0.000000
2,5,5,0,3625044,261089390,-8001602529751981551,1361362546.946882,14708,-984,-760,nan,0.000000
2,5,5,0,3625044,261089390,-8001602529751978930,1361362546.946882,15080,-2124,-1016,nan,0.000000
2,5,5,0,3625044,261089390,-8001602529751976309,1361362546.946882,16472,-1096,-2168,nan,0.000000
2,5,5,0,3625044,261089390,-8001602529751973688,1361362546.946882,18932,-4816,-2472,nan,0.000000
2,5,5,0,3625044,261089390,-8001602529751971067,1361362546.946882,15664,-6392,-2748,nan,0.000000
2,5,6,0,3625044,261089422,-8001602529751968446,1361362546.947673,15640,-3436,-12,nan,0.000000
2,5,6,0,3625044,261089422,-8001602529751965825,1361362546.947673,14556,-3544,428,nan,0.000000
2,5,6,0,3625044,261089422,-8001602529751963204,1361362546.947673,14244,-3956,1268,nan,0.000000
2,5,6,0,3625044,261089422,-8001602529751960583,1361362546.947673,13832,-2944,1476,nan,0.000000
2,5,6,0,3625044,261089422,-8001602529751957962,1361362546.947673,13568,-3168,1452,nan,0.000000
2,5,7,0,3625044,261089454,-8001602529751955341,1361362549.423066,17644,-4220,1264,nan,0.000000
2,5,7,0,3625044,261089454,-8001602529751952720,1361362549.423066,20648,-4056,-704,nan,0.000000
2,5,7,0,3625044,261089454,-8001602529751950099,1361362549.423066,13948,-3068,-772,nan,0.000000
2,5,7,0,3625044,261089454,-8001602529751947478,1361362549.423066,16168,-5072,-1716,nan,0.000000
2,5,7,0,3625044,261089454,-8001602529751944857,1361362549.423066,15188,-2680,-1060,nan,0.000000
1,5,8,0,3706366,261170586,4682944201616322564,1361362549.424768,14804,-1580,-900,nan,0.000000
1,5,8,0,3706366,261170586,4682944201616325185,1361362549.424768,15304,-2476,-604,nan,0.000000
2,5,9,0,3706366,261170618,4682944201616327806,1361362549.425378,16840,-996,-1600,nan,0.000000
2,5,9,0,3706366,261170618,4682944201616330427,1361362549.425378,18040,-3376,-416,nan,0.000000
2,5,9,0,3706366,261170618,4682944201616333048,1361362549.425378,16268,-5760,-2704,nan,0.000000
2,5,9,0,3706366,261170618,4682944201616335669,1361362549.425378,14312,-3980,560,nan,0.000000
2,5,9,0,3706366,261170618,4682944201616338290,1361362549.425378,16160,-4840,-368,nan,0.000000
2,5,10,0,3706366,261170649,4682944201616340911,1361362549.426785,14092,-4264,572,nan,0.000000
2,5,10,0,3706366,261170649,4682944201616343532,1361362549.426785,14472,-3164,1636,nan,0.000000
2,5,10,0,3706366,261170649,4682944201616346153,1361362549.426785,14348,-2872,1876,nan,0.000000
2,5,10,0,3706366,261170649,4682944201616348774,1361362549.426785,13632,-4088,768,nan,0.000000
2,5,10,0,3706366,261170649,4682944201616351395,1361362549.426785,18724,-2384,2328,nan,0.000000
2,5,11,0,3706366,261170682,4682944201616354016,1361362549.427517,20192,-7796,-1352,nan,0.000000
2,5,11,0,3706366,261170682,4682944201616356637,1361362549.427517,12184,-2084,-304,nan,0.000000
2,5,11,0,3706366,261170682,4682944201616359258,1361362549.427517,17040,-5168,-2212,nan,0.000000
2,5,11,0,3706366,261170682,4682944201616361879,1361362549.427517,15092,-3468,-1044,nan,0.000000
2,5,11,0,3706366,261170682,4682944201616364500,1361362549.427517,14408,-2388,-1340,nan,0.000000
2,5,12,0,3706366,261170713,4682944201616367121,1361362549.428748,15292,-836,-772,nan,0.000000
2,5,12,0,3706366,261170713,4682944201616369742,1361362549.428748,15380,-2648,-892,nan,0.000000
2,5,12,0,3706366,261170713,4682944201616372363,1361362549.428748,16736,-108,-904,nan,0.000000
2,5,12,0,3706366,261170713,4682944201616374984,1361362549.428748,17868,-2916,116,nan,0.000000
2,5,12,0,3706366,261170713,4682944201616377605,1361362549.428748,17496,-4956,-2672,nan,0.000000
2,5,13,0,3706366,261170746,4682944201616380226,1361362549.429927,12528,-4280,-936,nan,0.000000
2,5,13,0,3706366,261170746,4682944201616382847,1361362549.429927,17000,-4168,-152,nan,0.000000
2,5,13,0,3706366,261170746,4682944201616385468,1361362549.429927,15404,-3604,-244,nan,0.000000
2,5,13,0,3706366,261170746,4682944201616388089,1361362549.429927,14488,-3540,1256,nan,0.000000
2,5,13,0,3706366,261170746,4682944201616390710,1361362549.429927,14736,-2652,1716,nan,0.000000
2,5,14,0,3706366,261170777,4682944201616393331,1361362551.907030,13884,-2524,1492,nan,0.000000
2,5,14,0,3706366,261170777,4682944201616395952,1361362551.907030,15608,-4620,304,nan,0.000000
2,5,14,0,3706366,261170777,4682944201616398573,1361362551.907030,20864,-3112,-696,nan,0.000000
2,5,14,0,3706366,261170777,4682944201616401194,1361362551.907030,15056,-4692,-884,nan,0.000000
2,5,14,0,3706366,261170777,4682944201616403815,1361362551.907030,15128,-4204,-2792,nan,0.000000
1,5,15,0,3787687,261251928,3459315291706414085,1361362551.908171,14684,-1772,-2276,nan,0.000000
1,5,15,0,3787687,261251928,3459315291706416706,1361362551.908171,15300,-348,-1232,nan,0.000000
2,5,0,0,3787687,261251959,3459315291706419327,1361362551.908706,15716,-1040,-1112,nan,0.000000
2,5,0,0,3787687,261251959,3459315291706421948,1361362551.908706,16400,772,-1756,nan,0.000000
2,5,0,0,3787687,261251959,3459315291706424569,1361362551.908706,16524,-4468,-1288,nan,0.000000
2,5,0,0,3787687,261251959,3459315291706427190,1361362551.908706,19384,-2872,-2604,nan,0.000000
2,5,0,0,3787687,261251959,3459315291706429811,1361362551.908706,12724,-4732,-164,nan,0.000000
2,5,1,0,3787687,261251992,3459315291706432432,1361362551.909605,16424,-4600,-192,nan,0.000000
2,5,1,0,3787687,261251992,3459315291706435053,1361362551.909605,14900,-4132,140,nan,0.000000
2,5,1,0,3787687,261251992,3459315291706437674,1361362551.909605,14400,-3232,1424,nan,0.000000
2,5,1,0,3787687,261251992,3459315291706440295,1361362551.909605,14256,-2476,1976,nan,0.000000
2,5,1,0,3787687,261251992,3459315291706442916,1361362551.909605,13688,-4216,-124,nan,0.000000
2,5,2,0,3787687,261252023,3459315291706445537,1361362551.910665,17708,-1660,2552,nan,0.000000
2,5,2,0,3787687,261252023,3459315291706448158,1361362551.910665,20164,-4776,-488,nan,0.000000
2,5,2,0,3787687,261252023,3459315291706450779,1361362551.910665,15404,-4384,-276,nan,0.000000
2,5,2,0,3787687,261252023,3459315291706453400,1361362551.910665,12864,-3172,-3024,nan,0.000000
2,5,2,0,3787687,261252023,3459315291706456021,1361362551.910665,17684,-2236,-1744,nan,0.000000
2,5,3,0,3787687,261252056,3459315291706458642,1361362551.911186,14260,-3088,-2608,nan,0.000000
2,5,3,0,3787687,261252056,3459315291706461263,1361362551.911186,15080,-604,-1224,nan,0.000000
2,5,3,0,3787687,261252056,3459315291706463884,1361362551.911186,15460,-1084,-1688,nan,0.000000
2,5,3,0,3787687,261252056,3459315291706466505,1361362551.911186,16216,464,-1128,nan,0.000000
2,5,3,0,3787687,261252056,3459315291706469126,1361362551.911186,16148,-3524,-2932,nan,0.000000
2,5,4,0,3787687,261252087,3459315291706471747,1361362551.912733,19184,-872,-1508,nan,0.000000
2,5,4,0,3787687,261252087,3459315291706474368,1361362551.912733,15808,-5624,-3252,nan,0.000000
2,5,4,0,3787687,261252087,3459315291706476989,1361362551.912733,14824,-2680,824,nan,0.000000
2,5,4,0,3787687,261252087,3459315291706479610,1361362551.912733,15424,-4968,-616,nan,0.000000
2,5,4,0,3787687,261252087,3459315291706482231,1361362551.912733,14176,-3764,372,nan,0.000000
2,5,5,0,3787687,261252119,3459315291706484852,1361362554.394989,14632,-3472,1200,nan,0.000000
2,5,5,0,3787687,261252119,3459315291706487473,1361362554.394989,14432,-2524,1424,nan,0.000000
2,5,5,0,3787687,261252119,3459315291706490094,1361362554.394989,14368,-4120,224,nan,0.000000
2,5,5,0,3787687,261252119,3459315291706492715,1361362554.394989,17888,-1400,2588,nan,0.000000
2,5,5,0,3787687,261252119,3459315291706495336,1361362554.394989,19208,-4816,-1228,nan,0.000000
1,5,6,0,3869007,261333467,-8069002516769492988,1361362554.398768,15116,-3052,-3292,nan,0.000000
1,5,6,0,3869007,261333467,-8069002516769490367,1361362554.398768,16008,-3492,-1676,nan,0.000000
2,5,7,0,3869007,261333594,-8069002516769487746,1361362554.399260,14692,-2048,-1564,nan,0.000000
2,5,7,0,3869007,261333594,-8069002516769485125,1361362554.399260,15044,-1748,-1216,nan,0.000000
2,5,7,0,3869007,261333594,-8069002516769482504,1361362554.399260,15672,-1552,-1100,nan,0.000000
2,5,7,0,3869007,261333594,-8069002516769479883,1361362554.399260,15848,-1048,-364,nan,0.000000
2,5,7,0,3869007,261333594,-8069002516769477262,1361362554.399260,16696,-1568,-1888,nan,0.000000
2,5,8,0,3869007,261333626,-8069002516769474641,1361362554.400637,18452,-2660,-536,nan,0.000000
2,5,8,0,3869007,261333626,-8069002516769472020,1361362554.400637,17392,-4272,-4112,nan,0.000000
2,5,8,0,3869007,261333626,-8069002516769469399,1361362554.400637,13136,-3704,-52,nan,0.000000
2,5,8,0,3869007,261333626,-8069002516769466778,1361362554.400637,16324,-4428,-1416,nan,0.000000
2,5,8,0,3869007,261333626,-8069002516769464157,1361362554.400637,14628,-3284,-548,nan,0.000000
2,5,9,0,3869007,261333658,-8069002516769461536,1361362554.401505,14320,-3052,484,nan,0.000000
2,5,9,0,3869007,261333658,-8069002516769458915,1361362554.401505,14896,-2496,904,nan,0.000000
2,5,9,0,3869007,261333658,-8069002516769456294,1361362554.401505,14876,-4560,-648,nan,0.000000
2,5,9,0,3869007,261333658,-8069002516769453673,1361362554.401505,18112,-712,1460,nan,0.000000
2,5,9,0,3869007,261333658,-8069002516769451052,1361362554.401505,18436,-6612,-3944,nan,0.000000
2,5,10,0,3869007,261333690,-8069002516769448431,1361362554.402647,12184,-1100,-3132,nan,0.000000
2,5,10,0,3869007,261333690,-8069002516769445810,1361362554.402647,16980,-1648,-4140,nan,0.000000
2,5,10,0,3869007,261333690,-8069002516769443189,1361362554.402647,15648,-1240,-2988,nan,0.000000
2,5,10,0,3869007,261333690,-8069002516769440568,1361362554.402647,14612,-452,-3188,nan,0.000000
2,5,10,0,3869007,261333690,-8069002516769437947,1361362554.402647,15504,-440,-2492,nan,0.000000
2,5,11,0,3869007,261333722,-8069002516769435326,1361362554.403251,15744,-1748,-3188,nan,0.000000
2,5,11,0,3869007,261333722,-8069002516769432705,1361362554.403251,16216,-2096,-2448,nan,0.000000
2,5,11,0,3869007,261333722,-8069002516769430084,1361362554.403251,16644,-2360,-2468,nan,0.000000
2,5,11,0,3869007,261333722,-8069002516769427463,1361362554.403251,15908,-772,-5276,nan,0.000000
2,5,11,0,3869007,261333722,-8069002516769424842,1361362554.403251,15180,320,-1924,nan,0.000000
2,5,12,0,3869007,261333754,-8069002516769422221,1361362556.868943,17380,-1512,-3148,nan,0.000000
2,5,12,0,3869007,261333754,-8069002516769419600,1361362556.868943,15496,-556,-2356,nan,0.000000
2,5,12,0,3869007,261333754,-8069002516769416979,1361362556.868943,15136,-1148,-2116,nan,0.000000
2,5,12,0,3869007,261333754,-8069002516769414358,1361362556.868943,15612,-1280,-2500,nan,0.000000
2,5,12,0,3869007,261333754,-8069002516769411737,1361362556.868943,15936,-3256,-2172,nan,0.000000
1,5,13,0,3950327,261414559,-3677517860323937037,1361362556.870642,16128,-180,-3676,nan,0.000000
1,5,13,0,3950327,261414559,-3677517860323934416,1361362556.870642,15608,-2044,-5040,nan,0.000000
2,5,14,0,3950327,261414591,-3677517860323931795,1361362556.872759,16128,300,-4096,nan,0.000000
2,5,14,0,3950327,261414591,-3677517860323929174,1361362556.872759,14068,-456,-4692,nan,0.000000
2,5,14,0,3950327,261414591,-3677517860323926553,1361362556.872759,16000,-400,-4464,nan,0.000000
2,5,14,0,3950327,261414591,-3677517860323923932,1361362556.872759,16296,-372,-4436,nan,0.000000
2,5,14,0,3950327,261414591,-3677517860323921311,1361362556.872759,15252,-376,-4232,nan,0.000000
2,5,15,0,3950327,261414623,-3677517860323918690,1361362556.873667,15404,-1092,-3944,nan,0.000000
2,5,15,0,3950327,261414623,-3677517860323916069,1361362556.873667,16360,-1316,-4572,nan,0.000000
2,5,15,0,3950327,261414623,-3677517860323913448,1361362556.873667,15820,-3588,-4236,nan,0.000000
2,5,15,0,3950327,261414623,-3677517860323910827,1361362556.873667,15012,-3820,-3144,nan,0.000000
2,5,15,0,3950327,261414623,-3677517860323908206,1361362556.873667,16352,-3676,-1916,nan,0.000000
2,5,0,0,3950327,261414655,-3677517860323905585,1361362556.874324,15864,-3496,-2120,nan,0.000000
2,5,0,0,3950327,261414655,-3677517860323902964,1361362556.874324,15216,-2760,-1468,nan,0.000000
2,5,0,0,3950327,261414655,-3677517860323900343,1361362556.874324,15356,-3628,-1096,nan,0.000000
2,5,0,0,3950327,261414655,-3677517860323897722,1361362556.874324,15252,-3712,-812,nan,0.000000
2,5,0,0,3950327,261414655,-3677517860323895101,1361362556.874324,14880,-3396,-80,nan,0.000000
2,5,1,0,3950327,261414687,-3677517860323892480,1361362556.874950,15016,-3132,-152,nan,0.000000
2,5,1,0,3950327,261414687,-3677517860323889859,1361362556.874950,15368,-2512,-392,nan,0.000000
2,5,1,0,3950327,261414687,-3677517860323887238,1361362556.874950,15596,-1828,508,nan,0.000000
2,5,1,0,3950327,261414687,-3677517860323884617,1361362556.874950,16928,-2204,8,nan,0.000000
2,5,1,0,3950327,261414687,-3677517860323881996,1361362556.874950,18316,-4008,-580,nan,0.000000
2,5,2,0,3950327,261414719,-3677517860323879375,1361362556.875487,16580,-4256,-976,nan,0.000000
2,5,2,0,3950327,261414719,-3677517860323876754,1361362556.875487,14380,-3328,-1484,nan,0.000000
2,5,2,0,3950327,261414719,-3677517860323874133,1361362556.875487,15264,-3276,-3152,nan,0.000000
2,5,2,0,3950327,261414719,-3677517860323871512,1361362556.875487,16364,-3140,-2312,nan,0.000000
2,5,2,0,3950327,261414719,-3677517860323868891,1361362556.875487,14820,-2468,-1976,nan,0.000000
2,5,3,0,3950327,261414751,-3677517860323866270,1361362559.352894,15432,-1640,-1924,nan,0.000000
2,5,3,0,3950327,261414751,-3677517860323863649,1361362559.352894,15744,-1660,-1996,nan,0.000000
2,5,3,0,3950327,261414751,-3677517860323861028,1361362559.352894,15768,-844,-1384,nan,0.000000
2,5,3,0,3950327,261414751,-3677517860323858407,1361362559.352894,15632,-728,-1728,nan,0.000000
2,5,3,0,3950327,261414751,-3677517860323855786,1361362559.352894,15976,-200,-1532,nan,0.000000
1,5,4,0,4031648,261495902,3816946891329731832,1361362559.354131,17924,-2972,-2808,nan,0.000000
1,5,4,0,4031648,261495902,3816946891329734453,1361362559.354131,15180,-3720,-2588,nan,0.000000
2,5,5,0,4031648,261495934,3816946891329737074,1361362559.354859,13780,-4552,-332,nan,0.000000
2,5,5,0,4031648,261495934,3816946891329739695,1361362559.354859,16536,-4272,-1392,nan,0.000000
2,5,5,0,4031648,261495934,3816946891329742316,1361362559.354859,14628,-3556,-1112,nan,0.000000
2,5,5,0,4031648,261495934,3816946891329744937,1361362559.354859,15324,-3272,-468,nan,0.000000
2,5,5,0,4031648,261495934,3816946891329747558,1361362559.354859,15100,-3532,404,nan,0.000000
2,5,6,0,4031648,261495966,3816946891329750179,1361362559.355560,14760,-2348,984,nan,0.000000
2,5,6,0,4031648,261495966,3816946891329752800,1361362559.355560,14760,-3716,288,nan,0.000000
2,5,6,0,4031648,261495966,3816946891329755421,1361362559.355560,17216,-888,2160,nan,0.000000
2,5,6,0,4031648,261495966,3816946891329758042,1361362559.355560,18976,-4500,-332,nan,0.000000
2,5,6,0,4031648,261495966,3816946891329760663,1361362559.355560,16780,-5828,268,nan,0.000000
2,5,7,0,4031648,261495998,3816946891329763284,1361362559.357431,13436,-4332,-1124,nan,0.000000
2,5,7,0,4031648,261495998,3816946891329765905,1361362559.357431,16788,-3644,-508,nan,0.000000
2,5,7,0,4031648,261495998,3816946891329768526,1361362559.357431,14524,-2368,-1740,nan,0.000000
2,5,7,0,4031648,261495998,3816946891329771147,1361362559.357431,15376,-760,-1444,nan,0.000000
2,5,7,0,4031648,261495998,3816946891329773768,1361362559.357431,15372,-872,-1308,nan,0.000000
2,5,8,0,4031648,261496030,3816946891329776389,1361362559.363355,15424,-1060,-764,nan,0.000000
2,5,8,0,4031648,261496030,3816946891329779010,1361362559.363355,16164,-2728,-2280,nan,0.000000
2,5,8,0,4031648,261496030,3816946891329781631,1361362559.363355,16480,284,48,nan,0.000000
2,5,8,0,4031648,261496030,3816946891329784252,1361362559.363355,18180,-6516,-2348,nan,0.000000
2,5,8,0,4031648,261496030,3816946891329786873,1361362559.363355,14784,-3836,-356,nan,0.000000
2,5,9,0,4031648,261496062,3816946891329789494,1361362559.367706,15188,-3168,2336,nan,0.000000
2,5,9,0,4031648,261496062,3816946891329792115,1361362559.367706,15608,-4468,20,nan,0.000000
2,5,9,0,4031648,261496062,3816946891329794736,1361362559.367706,14620,-2488,844,nan,0.000000
2,5,9,0,4031648,261496062,3816946891329797357,1361362559.367706,15392,-1516,1260,nan,0.000000
2,5,9,0,4031648,261496062,3816946891329799978,1361362559.367706,15472,-100,256,nan,0.000000
2,5,10,0,4031648,261496094,3816946891329802599,1361362561.834857,15596,-2296,-1084,nan,0.000000
2,5,10,0,4031648,261496094,3816946891329805220,1361362561.834857,17464,-956,824,nan,0.000000
2,5,10,0,4031648,261496094,3816946891329807841,1361362561.834857,20252,-4632,-3880,nan,0.000000
2,5,10,0,4031648,261496094,3816946891329810462,1361362561.834857,14180,-572,-1632,nan,0.000000
2,5,10,0,4031648,261496094,3816946891329813083,1361362561.834857,12940,-1908,-6484,nan,0.000000
1,5,11,0,4112969,261577227,4036145541120574715,1361362561.836067,15048,672,-4184,nan,0.000000
1,5,11,0,4112969,261577227,4036145541120577336,1361362561.836067,14320,-876,-4376,nan,0.000000
2,5,12,0,4112969,261577259,4036145541120579957,1361362561.836664,14748,-1340,-3124,nan,0.000000
2,5,12,0,4112969,261577259,4036145541120582578,1361362561.836664,16444,1008,-2668,nan,0.000000
2,5,12,0,4112969,261577259,4036145541120585199,1361362561.836664,17124,-4188,-824,nan,0.000000
2,5,12,0,4112969,261577259,4036145541120587820,1361362561.836664,18920,-4820,-2128,nan,0.000000
2,5,12,0,4112969,261577259,4036145541120590441,1361362561.836664,15768,-1656,-3784,nan,0.000000
2,5,13,0,4112969,261577291,4036145541120593062,1361362561.837589,15456,-1628,-1268,nan,0.000000
2,5,13,0,4112969,261577291,4036145541120595683,1361362561.837589,15228,-3188,-1380,nan,0.000000
2,5,13,0,4112969,261577291,4036145541120598304,1361362561.837589,15000,-1268,-872,nan,0.000000
2,5,13,0,4112969,261577291,4036145541120600925,1361362561.837589,15096,-580,-696,nan,0.000000
2,5,13,0,4112969,261577291,4036145541120603546,1361362561.837589,15148,-1020,-624,nan,0.000000
2,5,14,0,4112969,261577323,4036145541120606167,1361362561.838509,15748,-3180,-1396,nan,0.000000
2,5,14,0,4112969,261577323,4036145541120608788,1361362561.838509,15992,-3140,-544,nan,0.000000
2,5,14,0,4112969,261577323,4036145541120611409,1361362561.838509,18112,-3872,-3104,nan,0.000000
2,5,14,0,4112969,261577323,4036145541120614030,1361362561.838509,16252,-1208,-1372,nan,0.000000
2,5,14,0,4112969,261577323,4036145541120616651,1361362561.838509,13380,-2400,-4884,nan,0.000000
2,5,15,0,4112969,261577355,4036145541120619272,1361362561.839289,16440,-1112,-4092,nan,0.000000
2,5,15,0,4112969,261577355,4036145541120621893,1361362561.839289,15628,-412,-3268,nan,0.000000
2,5,15,0,4112969,261577355,4036145541120624514,1361362561.839289,14592,-656,-2988,nan,0.000000
2,5,15,0,4112969,261577355,4036145541120627135,1361362561.839289,15568,-436,-2640,nan,0.000000
2,5,15,0,4112969,261577355,4036145541120629756,1361362561.839289,15768,-1848,-2564,nan,0.000000
2,5,0,0,4112969,261577387,4036145541120632377,1361362561.840445,15960,-820,-1692,nan,0.000000
2,5,0,0,4112969,261577387,4036145541120634998,1361362561.840445,17876,-2084,-2108,nan,0.000000
2,5,0,0,4112969,261577387,4036145541120637619,1361362561.840445,19416,-1316,-2360,nan,0.000000
2,5,0,0,4112969,261577387,4036145541120640240,1361362561.840445,13452,-2664,-2864,nan,0.000000
2,5,0,0,4112969,261577387,4036145541120642861,1361362561.840445,16252,-2176,-1480,nan,0.000000
1,5,2,0,4194291,261902510,8141691158951199995,1361362571.762553,18196,624,-752,nan,0.000000
1,5,2,0,4194291,261902510,8141691158951202616,1361362571.762553,19172,-5720,-3916,nan,0.000000
2,5,3,0,4194291,261902542,8141691158951205237,1361362571.763452,12996,-1580,-1144,nan,0.000000
2,5,3,0,4194291,261902542,8141691158951207858,1361362571.763452,16404,-3368,-2732,nan,0.000000
2,5,3,0,4194291,261902542,8141691158951210479,1361362571.763452,15076,-2280,-1960,nan,0.000000
2,5,3,0,4194291,261902542,8141691158951213100,1361362571.763452,14852,-1140,-1360,nan,0.000000
2,5,3,0,4194291,261902542,8141691158951215721,1361362571.763452,15636,-344,-1216,nan,0.000000
2,5,4,0,4194291,261902573,8141691158951218342,1361362571.764408,15392,-1328,-1428,nan,0.000000
2,5,4,0,4194291,261902573,8141691158951220963,1361362571.764408,16436,-1016,-752,nan,0.000000
2,5,4,0,4194291,261902573,8141691158951223584,1361362571.764408,17268,-2872,52,nan,0.000000
2,5,4,0,4194291,261902573,8141691158951226205,1361362571.764408,20068,-1260,-1556,nan,0.000000
2,5,4,0,4194291,261902573,8141691158951228826,1361362571.764408,12776,-4392,-3028,nan,0.000000
2,5,5,0,4194291,261902606,8141691158951231447,1361362571.765611,15724,-2360,-156,nan,0.000000
2,5,5,0,4194291,261902606,8141691158951234068,1361362571.765611,16128,-3228,-1844,nan,0.000000
2,5,5,0,4194291,261902606,8141691158951236689,1361362571.765611,14636,-2756,-464,nan,0.000000
2,5,5,0,4194291,261902606,8141691158951239310,1361362571.765611,14564,-2744,92,nan,0.000000
2,5,5,0,4194291,261902606,8141691158951241931,1361362571.765611,14692,-2288,1008,nan,0.000000
2,5,6,0,4194291,261902637,8141691158951244552,1361362571.766345,14644,-4020,-844,nan,0.000000
2,5,6,0,4194291,261902637,8141691158951247173,1361362571.766345,17700,-2032,2072,nan,0.000000
2,5,6,0,4194291,261902637,8141691158951249794,1361362571.766345,20436,-5880,-1996,nan,0.000000
2,5,6,0,4194291,261902637,8141691158951252415,1361362571.766345,13272,-2100,-904,nan,0.000000
2,5,6,0,4194291,261902637,8141691158951255036,1361362571.766345,14944,-2848,-3580,nan,0.000000
2,5,7,0,4194291,261902670,8141691158951257657,1361362571.767044,16600,-2224,-1996,nan,0.000000
2,5,7,0,4194291,261902670,8141691158951260278,1361362571.767044,14248,-1688,-1820,nan,0.000000
2,5,7,0,4194291,261902670,8141691158951262899,1361362571.767044,15124,-776,-1032,nan,0.000000
2,5,7,0,4194291,261902670,8141691158951265520,1361362571.767044,15564,-1568,-1456,nan,0.000000
2,5,7,0,4194291,261902670,8141691158951268141,1361362571.767044,15444,-668,-948,nan,0.000000
2,5,8,0,4194291,261902701,8141691158951270762,1361362571.768215,16620,-2216,-184,nan,0.000000
2,5,8,0,4194291,261902701,8141691158951273383,1361362571.768215,20936,-1288,-1580,nan,0.000000
2,5,8,0,4194291,261902701,8141691158951276004,1361362571.768215,17436,-3612,-4132,nan,0.000000
2,5,8,0,4194291,261902701,8141691158951278625,1361362571.768215,10936,-3644,-944,nan,0.000000
2,5,8,0,4194291,261902701,8141691158951281246,1361362571.768215,17308,-3504,-1244,nan,0.000000
1,5,9,0,4275611,261902734,-3100173112481593089,1361362571.769163,14360,-2484,820,nan,0.000000
1,5,9,15,4275611,261902734,-3100173112481590468,1361362571.769163,14128,-2552,1296,nan,0.000000
2,5,10,15,4275611,261902765,-3100173112481587847,1361362571.770194,14620,-4136,612,nan,0.000000
2,5,10,15,4275611,261902765,-3100173112481585226,1361362571.770194,16612,-3412,1840,nan,0.000000
2,5,10,15,4275611,261902765,-3100173112481582605,1361362571.770194,21828,-5360,-4176,nan,0.000000
2,5,10,15,4275611,261902765,-3100173112481579984,1361362571.770194,13320,-1476,-1228,nan,0.000000
2,5,10,15,4275611,261902765,-3100173112481577363,1361362571.770194,13628,-2540,-4372,nan,0.000000
2,5,11,15,4275611,261902798,-3100173112481574742,1361362571.770669,16896,-892,-2568,nan,0.000000
2,5,11,15,4275611,261902798,-3100173112481572121,1361362571.770669,14836,-1684,-3384,nan,0.000000
2,5,11,15,4275611,261902798,-3100173112481569500,1361362571.770669,15032,-260,-1688,nan,0.000000
2,5,11,15,4275611,261902798,-3100173112481566879,1361362571.770669,15092,-196,-1996,nan,0.000000
2,5,11,15,4275611,261902798,-3100173112481564258,1361362571.770669,16052,-1632,-2312,nan,0.000000
2,5,12,15,4275611,261902829,-3100173112481561637,1361362571.772553,18948,-3024,-2424,nan,0.000000
2,5,12,15,4275611,261902829,-3100173112481559016,1361362571.772553,19432,-1656,-3940,nan,0.000000
2,5,12,15,4275611,261902829,-3100173112481556395,1361362571.772553,11048,-3376,-1504,nan,0.000000
2,5,12,15,4275611,261902829,-3100173112481553774,1361362571.772553,16452,-3824,-1020,nan,0.000000
2,5,12,15,4275611,261902829,-3100173112481551153,1361362571.772553,15740,-3480,-1080,nan,0.000000
2,5,13,15,4275611,261902862,-3100173112481548532,1361362571.773168,14676,-2552,204,nan,0.000000
2,5,13,15,4275611,261902862,-3100173112481545911,1361362571.773168,14392,-2468,664,nan,0.000000
2,5,13,15,4275611,261902862,-3100173112481543290,1361362571.773168,14720,-2368,712,nan,0.000000
2,5,13,15,4275611,261902862,-3100173112481540669,1361362571.773168,15572,-5448,-1036,nan,0.000000
2,5,13,15,4275611,261902862,-3100173112481538048,1361362571.773168,18708,1860,2384,nan,0.000000
2,5,14,15,4275611,261902893,-3100173112481535427,1361362571.774508,18952,-7096,-2840,nan,0.000000
2,5,14,15,4275611,261902893,-3100173112481532806,1361362571.774508,12188,-1644,-1496,nan,0.000000
2,5,14,15,4275611,261902893,-3100173112481530185,1361362571.774508,16632,-3404,-3532,nan,0.000000
2,5,14,15,4275611,261902893,-3100173112481527564,1361362571.774508,15692,-1320,-1864,nan,0.000000
2,5,14,15,4275611,261902893,-3100173112481524943,1361362571.774508,14264,-2084,-2568,nan,0.000000
2,5,15,15,4275611,261902926,-3100173112481522322,1361362571.775126,16008,-132,-860,nan,0.000000
2,5,15,15,4275611,261902926,-3100173112481519701,1361362571.775126,15648,-432,-1380,nan,0.000000
2,5,15,15,4275611,261902926,-3100173112481517080,1361362571.775126,15576,-708,-1900,nan,0.000000
2,5,15,15,4275611,261902926,-3100173112481514459,1361362571.775126,17012,-2996,-984,nan,0.000000
2,5,15,15,4275611,261902926,-3100173112481511838,1361362571.775126,19436,-720,-2036,nan,0.000000
1,5,0,0,4356934,261902957,-7135301607222303492,1361362571.776533,12052,-4112,-900,nan,0.000000
1,5,0,0,4356934,261902957,-7135301607222300871,1361362571.776533,17260,-3372,-884,nan,0.000000
2,5,1,0,4356934,261902990,-7135301607222298250,1361362571.776958,15404,-3072,-860,nan,0.000000
2,5,1,0,4356934,261902990,-7135301607222295629,1361362571.776958,14840,-2644,168,nan,0.000000
2,5,1,0,4356934,261902990,-7135301607222293008,1361362571.776958,14676,-2156,868,nan,0.000000
2,5,1,0,4356934,261902990,-7135301607222290387,1361362571.776958,14784,-2644,732,nan,0.000000
2,5,1,0,4356934,261902990,-7135301607222287766,1361362571.776958,15692,-5564,80,nan,0.000000
2,5,2,0,4356934,261903021,-7135301607222285145,1361362571.778465,18708,296,700,nan,0.000000
2,5,2,0,4356934,261903021,-7135301607222282524,1361362571.778465,18688,-5508,-2148,nan,0.000000
2,5,2,0,4356934,261903021,-7135301607222279903,1361362571.778465,12292,-1480,-1412,nan,0.000000
2,5,2,0,4356934,261903021,-7135301607222277282,1361362571.778465,16552,-3404,-4064,nan,0.000000
2,5,2,0,4356934,261903021,-7135301607222274661,1361362571.778465,16124,-1660,-1656,nan,0.000000
2,5,3,0,4356934,261903054,-7135301607222272040,1361362571.779045,14404,-1312,-2068,nan,0.000000
2,5,3,0,4356934,261903054,-7135301607222269419,1361362571.779045,15268,-684,-1756,nan,0.000000
2,5,3,0,4356934,261903054,-7135301607222266798,1361362571.779045,15960,-636,-1652,nan,0.000000
2,5,3,0,4356934,261903054,-7135301607222264177,1361362571.779045,15896,-220,-1676,nan,0.000000
2,5,3,0,4356934,261903054,-7135301607222261556,1361362571.779045,16484,-4044,-2228,nan,0.000000
2,5,4,0,4356934,261903085,-7135301607222258935,1361362571.780351,18936,352,-660,nan,0.000000
2,5,4,0,4356934,261903085,-7135301607222256314,1361362571.780351,16664,-4512,-4320,nan,0.000000
2,5,4,0,4356934,261903085,-7135301607222253693,1361362571.780351,12084,-3112,-284,nan,0.000000
2,5,4,0,4356934,261903085,-7135301607222251072,1361362571.780351,17904,-3152,-1640,nan,0.000000
2,5,4,0,4356934,261903085,-7135301607222248451,1361362571.780351,15636,-1540,-500,nan,0.000000
2,5,5,0,4356934,261903117,-7135301607222245830,1361362571.781163,14712,-3164,24,nan,0.000000
2,5,5,0,4356934,261903117,-7135301607222243209,1361362571.781163,15208,-2888,-216,nan,0.000000
2,5,5,0,4356934,261903117,-7135301607222240588,1361362571.781163,15280,-3188,-68,nan,0.000000
2,5,5,0,4356934,261903117,-7135301607222237967,1361362571.781163,15228,-3032,780,nan,0.000000
2,5,5,0,4356934,261903117,-7135301607222235346,1361362571.781163,15140,-2508,804,nan,0.000000
2,5,6,0,4356934,261903149,-7135301607222232725,1361362571.781682,17212,104,-84,nan,0.000000
2,5,6,0,4356934,261903149,-7135301607222230104,1361362571.781682,19404,-5884,-3320,nan,0.000000
2,5,6,0,4356934,261903149,-7135301607222227483,1361362571.781682,14012,-1808,-392,nan,0.000000
2,5,6,0,4356934,261903149,-7135301607222224862,1361362571.781682,15532,-3788,-2188,nan,0.000000
2,5,6,0,4356934,261903149,-7135301607222222241,1361362571.781682,15188,-3068,-2116,nan,0.000000
1,5,7,0,4438254,261903181,644864573845515519,1361362571.782218,16220,444,-1204,nan,0.000000
1,5,7,0,4438254,261903181,644864573845518140,1361362571.782218,15536,-220,-2164,nan,0.000000
2,5,8,0,4438254,261903213,644864573845520761,1361362571.782482,15844,-972,-1924,nan,0.000000
2,5,8,0,4438254,261903213,644864573845523382,1361362571.782482,16428,-3124,-956,nan,0.000000
2,5,8,0,4438254,261903213,644864573845526003,1361362571.782482,17580,-1968,-1372,nan,0.000000
2,5,8,0,4438254,261903213,644864573845528624,1361362571.782482,16848,-4288,-2892,nan,0.000000
2,5,8,0,4438254,261903213,644864573845531245,1361362571.782482,12880,-4324,380,nan,0.000000
2,5,9,0,4438254,261903245,644864573845533866,1361362571.784271,16748,-4280,240,nan,0.000000
2,5,9,0,4438254,261903245,644864573845536487,1361362571.784271,15536,-3484,40,nan,0.000000
2,5,9,0,4438254,261903245,644864573845539108,1361362571.784271,15036,-3124,688,nan,0.000000
2,5,9,0,4438254,261903245,644864573845541729,1361362571.784271,15196,-3376,356,nan,0.000000
2,5,9,0,4438254,261903245,644864573845544350,1361362571.784271,14928,-3080,816,nan,0.000000
2,5,10,0,4438254,261903277,644864573845546971,1361362571.784873,14876,-5296,620,nan,0.000000
2,5,10,0,4438254,261903277,644864573845549592,1361362571.784873,15896,-2364,1732,nan,0.000000
2,5,10,0,4438254,261903277,644864573845552213,1361362571.784873,18800,-7140,-2264,nan,0.000000
2,5,10,0,4438254,261903277,644864573845554834,1361362571.784873,14680,-2056,996,nan,0.000000
2,5,10,0,4438254,261903277,644864573845557455,1361362571.784873,15068,-3968,-2528,nan,0.000000
2,5,11,0,4438254,261903309,644864573845560076,1361362571.786219,16996,-496,160,nan,0.000000
2,5,11,0,4438254,261903309,644864573845562697,1361362571.786219,15268,-960,-692,nan,0.000000
2,5,11,0,4438254,261903309,644864573845565318,1361362571.786219,15092,-1044,-1812,nan,0.000000
2,5,11,0,4438254,261903309,644864573845567939,1361362571.786219,15832,-1672,-1840,nan,0.000000
2,5,11,0,4438254,261903309,644864573845570560,1361362571.786219,16004,-852,-3080,nan,0.000000
2,5,12,0,4438254,261903341,644864573845573181,1361362571.786791,16984,-2708,-1020,nan,0.000000
2,5,12,0,4438254,261903341,644864573845575802,1361362571.786791,16408,-2232,-2332,nan,0.000000
2,5,12,0,4438254,261903341,644864573845578423,1361362571.786791,14928,-4428,-1348,nan,0.000000
2,5,12,0,4438254,261903341,644864573845581044,1361362571.786791,16184,-3332,1176,nan,0.000000
2,5,12,0,4438254,261903341,644864573845583665,1361362571.786791,16220,-5160,-468,nan,0.000000
2,5,13,0,4438254,261903373,644864573845586286,1361362574.242501,14208,-3088,364,nan,0.000000
2,5,13,0,4438254,261903373,644864573845588907,1361362574.242501,15168,-4584,-228,nan,0.000000
2,5,13,0,4438254,261903373,644864573845591528,1361362574.242501,15268,-2956,104,nan,0.000000
2,5,13,0,4438254,261903373,644864573845594149,1361362574.242501,14672,-2812,872,nan,0.000000
2,5,13,0,4438254,261903373,644864573845596770,1361362574.242501,14812,-4360,-432,nan,0.000000
1,5,14,0,4519575,261983835,2089416163682118657,1361362574.244195,18724,-5864,-1244,nan,0.000000
1,5,14,0,4519575,261983835,2089416163682121278,1361362574.244195,12852,-2348,-1216,nan,0.000000
2,5,15,0,4519575,261983867,2089416163682123899,1361362574.244773,16404,-4024,-2608,nan,0.000000
2,5,15,0,4519575,261983867,2089416163682126520,1361362574.244773,15468,-1812,-1376,nan,0.000000
2,5,15,0,4519575,261983867,2089416163682129141,1361362574.244773,14864,-2104,-1816,nan,0.000000
2,5,15,0,4519575,261983867,2089416163682131762,1361362574.244773,15784,-816,-1332,nan,0.000000
2,5,15,0,4519575,261983867,2089416163682134383,1361362574.244773,14756,-648,-636,nan,0.000000
2,5,0,0,4519575,261983898,2089416163682137004,1361362574.246199,16008,-68,-524,nan,0.000000
2,5,0,0,4519575,261983898,2089416163682139625,1361362574.246199,18532,-4004,-772,nan,0.000000
2,5,0,0,4519575,261983898,2089416163682142246,1361362574.246199,19668,-2032,-2100,nan,0.000000
2,5,0,0,4519575,261983898,2089416163682144867,1361362574.246199,12112,-3872,-1236,nan,0.000000
2,5,0,0,4519575,261983898,2089416163682147488,1361362574.246199,16132,-4564,-156,nan,0.000000
2,5,1,0,4519575,261983931,2089416163682150109,1361362574.247171,15924,-3928,-840,nan,0.000000
2,5,1,0,4519575,261983931,2089416163682152730,1361362574.247171,14384,-2716,200,nan,0.000000
2,5,1,0,4519575,261983931,2089416163682155351,1361362574.247171,14960,-3052,308,nan,0.000000
2,5,1,0,4519575,261983931,2089416163682157972,1361362574.247171,14472,-2200,100,nan,0.000000
2,5,1,0,4519575,261983931,2089416163682160593,1361362574.247171,14756,-4956,-1588,nan,0.000000
2,5,2,0,4519575,261983962,2089416163682163214,1361362574.248216,17768,-2156,1152,nan,0.000000
2,5,2,0,4519575,261983962,2089416163682165835,1361362574.248216,17432,-1336,-652,nan,0.000000
2,5,2,0,4519575,261983962,2089416163682168456,1361362574.248216,20032,-4932,-3592,nan,0.000000
2,5,2,0,4519575,261983962,2089416163682171077,1361362574.248216,12420,-640,-2028,nan,0.000000
2,5,2,0,4519575,261983962,2089416163682173698,1361362574.248216,15672,-3916,-5088,nan,0.000000
2,5,3,0,4519575,261983995,2089416163682176319,1361362574.249244,15212,-660,-2800,nan,0.000000
2,5,3,0,4519575,261983995,2089416163682178940,1361362574.249244,14424,-464,-3048,nan,0.000000
2,5,3,0,4519575,261983995,2089416163682181561,1361362574.249244,15220,-356,-2544,nan,0.000000
2,5,3,0,4519575,261983995,2089416163682184182,1361362574.249244,15356,-468,-1684,nan,0.000000
2,5,3,0,4519575,261983995,2089416163682186803,1361362574.249244,15828,-340,-1764,nan,0.000000
2,5,4,0,4519575,261984026,2089416163682189424,1361362576.740454,16976,-2876,-1764,nan,0.000000
2,5,4,0,4519575,261984026,2089416163682192045,1361362576.740454,19644,556,-816,nan,0.000000
2,5,4,0,4519575,261984026,2089416163682194666,1361362576.740454,15904,-4980,-4608,nan,0.000000
2,5,4,0,4519575,261984026,2089416163682197287,1361362576.740454,13976,-2164,-96,nan,0.000000
2,5,4,0,4519575,261984026,2089416163682199908,1361362576.740454,16588,-3632,-1236,nan,0.000000
1,5,5,0,4600896,262065700,-3387784429428794119,1361362576.742156,14620,-2552,288,nan,0.000000
1,5,5,0,4600896,262065700,-3387784429428791498,1361362576.742156,14932,-1624,1128,nan,0.000000
2,5,6,0,4600896,262065732,-3387784429428788877,1361362576.742567,15084,-2652,564,nan,0.000000
2,5,6,0,4600896,262065732,-3387784429428786256,1361362576.742567,16404,-4564,620,nan,0.000000
2,5,6,0,4600896,262065732,-3387784429428783635,1361362576.742567,17548,-264,1324,nan,0.000000
2,5,6,0,4600896,262065732,-3387784429428781014,1361362576.742567,19116,-6640,-2340,nan,0.000000
2,5,6,0,4600896,262065732,-3387784429428778393,1361362576.742567,12976,-376,328,nan,0.000000
2,5,7,0,4600896,262065764,-3387784429428775772,1361362576.744173,15980,-3056,-2852,nan,0.000000
2,5,7,0,4600896,262065764,-3387784429428773151,1361362576.744173,15600,-2316,-1576,nan,0.000000
2,5,7,0,4600896,262065764,-3387784429428770530,1361362576.744173,14708,-1260,-1988,nan,0.000000
2,5,7,0,4600896,262065764,-3387784429428767909,1361362576.744173,15348,188,-920,nan,0.000000
2,5,7,0,4600896,262065764,-3387784429428765288,1361362576.744173,16028,-2084,-1272,nan,0.000000
2,5,8,0,4600896,262065796,-3387784429428762667,1361362576.745090,16424,-700,-2328,nan,0.000000
2,5,8,0,4600896,262065796,-3387784429428760046,1361362576.745090,17600,-3172,-796,nan,0.000000
2,5,8,0,4600896,262065796,-3387784429428757425,1361362576.745090,18664,-4992,-4492,nan,0.000000
2,5,8,0,4600896,262065796,-3387784429428754804,1361362576.745090,13080,-2936,-956,nan,0.000000
2,5,8,0,4600896,262065796,-3387784429428752183,1361362576.745090,16156,-4328,-1512,nan,0.000000
2,5,9,0,4600896,262065828,-3387784429428749562,1361362576.746152,14776,-2940,-560,nan,0.000000
2,5,9,0,4600896,262065828,-3387784429428746941,1361362576.746152,14416,-2960,440,nan,0.000000
2,5,9,0,4600896,262065828,-3387784429428744320,1361362576.746152,14680,-2164,1156,nan,0.000000
2,5,9,0,4600896,262065828,-3387784429428741699,1361362576.746152,14596,-3216,448,nan,0.000000
2,5,9,0,4600896,262065828,-3387784429428739078,1361362576.746152,17240,-4680,1012,nan,0.000000
2,5,10,0,4600896,262065860,-3387784429428736457,1361362576.746978,18384,-3184,468,nan,0.000000
2,5,10,0,4600896,262065860,-3387784429428733836,1361362576.746978,17016,-3080,-1984,nan,0.000000
2,5,10,0,4600896,262065860,-3387784429428731215,1361362576.746978,13352,-2060,-3140,nan,0.000000
2,5,10,0,4600896,262065860,-3387784429428728594,1361362576.746978,16704,-2256,-2208,nan,0.000000
2,5,10,0,4600896,262065860,-3387784429428725973,1361362576.746978,14388,-1668,-2820,nan,0.000000
2,5,11,0,4600896,262065892,-3387784429428723352,1361362579.206435,14952,-844,-1576,nan,0.000000
2,5,11,0,4600896,262065892,-3387784429428720731,1361362579.206435,15292,-496,-1544,nan,0.000000
2,5,11,0,4600896,262065892,-3387784429428718110,1361362579.206435,15836,-1636,-1528,nan,0.000000
2,5,11,0,4600896,262065892,-3387784429428715489,1361362579.206435,17612,-2868,-1388,nan,0.000000
2,5,11,0,4600896,262065892,-3387784429428712868,1361362579.206435,20072,-644,-2136,nan,0.000000
1,5,12,0,4682214,262146482,-506354796836693767,1361362579.208081,13692,-2800,-524,nan,0.000000
1,5,12,0,4682214,262146482,-506354796836691146,1361362579.208081,16480,-3168,-1672,nan,0.000000
2,5,13,0,4682214,262146514,-506354796836688525,1361362579.208677,14868,-1948,-400,nan,0.000000
2,5,13,0,4682214,262146514,-506354796836685904,1361362579.208677,14804,-2656,-32,nan,0.000000
2,5,13,0,4682214,262146514,-506354796836683283,1361362579.208677,14872,-1660,756,nan,0.000000
2,5,13,0,4682214,262146514,-506354796836680662,1361362579.208677,14484,-3436,100,nan,0.000000
2,5,13,0,4682214,262146514,-506354796836678041,1361362579.208677,18092,-1612,1968,nan,0.000000
2,5,14,0,4682214,262146545,-506354796836675420,1361362579.210070,18604,-4864,-3336,nan,0.000000
2,5,14,0,4682214,262146545,-506354796836672799,1361362579.210070,14504,-1200,-2328,nan,0.000000
2,5,14,0,4682214,262146545,-506354796836670178,1361362579.210070,15368,-1548,-4468,nan,0.000000
2,5,14,0,4682214,262146545,-506354796836667557,1361362579.210070,16748,-108,-1728,nan,0.000000
2,5,14,0,4682214,262146545,-506354796836664936,1361362579.210070,14300,-740,-2800,nan,0.000000
2,5,15,0,4682214,262146578,-506354796836662315,1361362579.210980,15548,4,-1764,nan,0.000000
2,5,15,0,4682214,262146578,-506354796836659694,1361362579.210980,16412,552,-1696,nan,0.000000
2,5,15,0,4682214,262146578,-506354796836657073,1361362579.210980,16476,-900,-1800,nan,0.000000
2,5,15,0,4682214,262146578,-506354796836654452,1361362579.210980,17132,-2696,-1992,nan,0.000000
2,5,15,0,4682214,262146578,-506354796836651831,1361362579.210980,17164,172,-3036,nan,0.000000
2,5,0,0,4682214,262146609,-506354796836649210,1361362579.212088,16180,-1828,-724,nan,0.000000
2,5,0,0,4682214,262146609,-506354796836646589,1361362579.212088,15484,-1496,-1684,nan,0.000000
2,5,0,0,4682214,262146609,-506354796836643968,1361362579.212088,14952,-264,-688,nan,0.000000
2,5,0,0,4682214,262146609,-506354796836641347,1361362579.212088,15616,-772,-1924,nan,0.000000
2,5,0,0,4682214,262146609,-506354796836638726,1361362579.212088,16208,-2520,-1772,nan,0.000000
2,5,1,0,4682214,262146642,-506354796836636105,1361362579.213149,15816,-2100,-1252,nan,0.000000
2,5,1,0,4682214,262146642,-506354796836633484,1361362579.213149,15288,-2480,-1256,nan,0.000000
2,5,1,0,4682214,262146642,-506354796836630863,1361362579.213149,15248,-2376,-804,nan,0.000000
2,5,1,0,4682214,262146642,-506354796836628242,1361362579.213149,17848,-2576,-4436,nan,0.000000
2,5,1,0,4682214,262146642,-506354796836625621,1361362579.213149,13912,-2732,-4288,nan,0.000000
2,5,2,0,4682214,262146673,-506354796836623000,1361362581.690364,16312,-2164,-3616,nan,0.000000
2,5,2,0,4682214,262146673,-506354796836620379,1361362581.690364,16136,-2352,-4336,nan,0.000000
2,5,2,0,4682214,262146673,-506354796836617758,1361362581.690364,15516,-532,-3112,nan,0.000000
2,5,2,0,4682214,262146673,-506354796836615137,1361362581.690364,14800,-1104,-2836,nan,0.000000
2,5,2,0,4682214,262146673,-506354796836612516,1361362581.690364,15744,-1804,-2560,nan,0.000000
1,5,3,0,4763534,262227877,1220423779159630065,1361362581.692010,18296,-3344,-2328,nan,0.000000
1,5,3,0,4763534,262227877,1220423779159632686,1361362581.692010,15120,-3504,-3372,nan,0.000000
2,5,4,0,4763534,262227909,1220423779159635307,1361362581.692612,14488,-3092,-560,nan,0.000000
2,5,4,0,4763534,262227909,1220423779159637928,1361362581.692612,16776,-4088,-1652,nan,0.000000
2,5,4,0,4763534,262227909,1220423779159640549,1361362581.692612,14812,-3564,-340,nan,0.000000
2,5,4,0,4763534,262227909,1220423779159643170,1361362581.692612,14632,-3756,636,nan,0.000000
2,5,4,0,4763534,262227909,1220423779159645791,1361362581.692612,14680,-3180,688,nan,0.000000
2,5,5,0,4763534,262227940,1220423779159648412,1361362581.693924,14236,-3848,500,nan,0.000000
2,5,5,0,4763534,262227940,1220423779159651033,1361362581.693924,16588,-3460,1280,nan,0.000000
2,5,5,0,4763534,262227940,1220423779159653654,1361362581.693924,20328,-5536,-3008,nan,0.000000
2,5,5,0,4763534,262227940,1220423779159656275,1361362581.693924,13016,-1748,-856,nan,0.000000
2,5,5,0,4763534,262227940,1220423779159658896,1361362581.693924,15980,-4100,-4052,nan,0.000000
2,5,6,0,4763534,262227973,1220423779159661517,1361362581.694869,16036,-2156,-1524,nan,0.000000
2,5,6,0,4763534,262227973,1220423779159664138,1361362581.694869,14488,-1920,-2272,nan,0.000000
2,5,6,0,4763534,262227973,1220423779159666759,1361362581.694869,15436,-312,-1276,nan,0.000000
2,5,6,0,4763534,262227973,1220423779159669380,1361362581.694869,15464,-1008,-1704,nan,0.000000
2,5,6,0,4763534,262227973,1220423779159672001,1361362581.694869,15788,-1436,-1020,nan,0.000000
2,5,7,0,4763534,262228004,1220423779159674622,1361362581.696016,16928,-1524,-2144,nan,0.000000
2,5,7,0,4763534,262228004,1220423779159677243,1361362581.696016,19360,-1284,-1036,nan,0.000000
2,5,7,0,4763534,262228004,1220423779159679864,1361362581.696016,14184,-4880,-2864,nan,0.000000
2,5,7,0,4763534,262228004,1220423779159682485,1361362581.696016,15760,-3796,40,nan,0.000000
2,5,7,0,4763534,262228004,1220423779159685106,1361362581.696016,15508,-3832,-716,nan,0.000000
2,5,8,0,4763534,262228037,1220423779159687727,1361362581.697245,14392,-2892,128,nan,0.000000
2,5,8,0,4763534,262228037,1220423779159690348,1361362581.697245,15276,-3172,764,nan,0.000000
2,5,8,0,4763534,262228037,1220423779159692969,1361362581.697245,14892,-2576,1228,nan,0.000000
2,5,8,0,4763534,262228037,1220423779159695590,1361362581.697245,13984,-4580,132,nan,0.000000
2,5,8,0,4763534,262228037,1220423779159698211,1361362581.697245,18116,-1040,2092,nan,0.000000
1,5,10,0,4844855,262390453,-8575270421053579018,1361362586.652351,15616,-1152,-268,nan,0.000000
1,5,10,0,4844855,262390453,-8575270421053576397,1361362586.652351,15944,-400,-892,nan,0.000000
2,5,11,0,4844855,262390485,-8575270421053573776,1361362586.653939,17028,-2776,-624,nan,0.000000
2,5,11,0,4844855,262390485,-8575270421053571155,1361362586.653939,19208,-960,-1880,nan,0.000000
2,5,11,0,4844855,262390485,-8575270421053568534,1361362586.653939,15236,-3916,-2636,nan,0.000000
2,5,11,0,4844855,262390485,-8575270421053565913,1361362586.653939,13884,-4300,240,nan,0.000000
2,5,11,0,4844855,262390485,-8575270421053563292,1361362586.653939,16536,-4136,-1044,nan,0.000000
2,5,12,0,4844855,262390517,-8575270421053560671,1361362586.655031,15036,-2956,-244,nan,0.000000
2,5,12,0,4844855,262390517,-8575270421053558050,1361362586.655031,14748,-3280,312,nan,0.000000
2,5,12,0,4844855,262390517,-8575270421053555429,1361362586.655031,14552,-2524,988,nan,0.000000
2,5,12,0,4844855,262390517,-8575270421053552808,1361362586.655031,14624,-2160,1496,nan,0.000000
2,5,12,0,4844855,262390517,-8575270421053550187,1361362586.655031,16072,-6036,-356,nan,0.000000
2,5,13,0,4844855,262390549,-8575270421053547566,1361362586.655968,19524,608,1960,nan,0.000000
2,5,13,0,4844855,262390549,-8575270421053544945,1361362586.655968,17800,-6636,-1380,nan,0.000000
2,5,13,0,4844855,262390549,-8575270421053542324,1361362586.655968,12628,-1240,-1980,nan,0.000000
2,5,13,0,4844855,262390549,-8575270421053539703,1361362586.655968,17100,-4632,-3340,nan,0.000000
2,5,13,0,4844855,262390549,-8575270421053537082,1361362586.655968,15124,-1680,-1536,nan,0.000000
2,5,14,0,4844855,262390581,-8575270421053534461,1361362586.656892,14888,-1440,-1568,nan,0.000000
2,5,14,0,4844855,262390581,-8575270421053531840,1361362586.656892,15468,-1512,-1468,nan,0.000000
2,5,14,0,4844855,262390581,-8575270421053529219,1361362586.656892,15556,-1148,-1364,nan,0.000000
2,5,14,0,4844855,262390581,-8575270421053526598,1361362586.656892,15908,-520,-1460,nan,0.000000
2,5,14,0,4844855,262390581,-8575270421053523977,1361362586.656892,16288,-2448,-1096,nan,0.000000
2,5,15,0,4844855,262390613,-8575270421053521356,1361362586.657901,17196,-784,648,nan,0.000000
2,5,15,0,4844855,262390613,-8575270421053518735,1361362586.657901,17912,-312,-876,nan,0.000000
2,5,15,0,4844855,262390613,-8575270421053516114,1361362586.657901,15424,-4356,-2208,nan,0.000000
2,5,15,0,4844855,262390613,-8575270421053513493,1361362586.657901,14360,-4900,-2088,nan,0.000000
2,5,15,0,4844855,262390613,-8575270421053510872,1361362586.657901,16844,-3652,-352,nan,0.000000
2,5,0,0,4844855,262390645,-8575270421053508251,1361362586.659032,15132,-3324,-648,nan,0.000000
2,5,0,0,4844855,262390645,-8575270421053505630,1361362586.659032,14664,-3320,-16,nan,0.000000
2,5,0,0,4844855,262390645,-8575270421053503009,1361362586.659032,14904,-3120,-24,nan,0.000000
2,5,0,0,4844855,262390645,-8575270421053500388,1361362586.659032,15140,-2764,700,nan,0.000000
2,5,0,0,4844855,262390645,-8575270421053497767,1361362586.659032,14832,-3116,704,nan,0.000000
1,5,1,0,4926175,262390676,-1081135544563828483,1361362586.659843,17272,-1452,1640,nan,0.000000
1,5,1,15,4926175,262390676,-1081135544563825862,1361362586.659843,17744,-2996,-412,nan,0.000000
2,5,2,15,4926175,262390709,-1081135544563823241,1361362586.660164,17396,-4504,-2024,nan,0.000000
2,5,2,15,4926175,262390709,-1081135544563820620,1361362586.660164,13900,-2004,-3532,nan,0.000000
2,5,2,15,4926175,262390709,-1081135544563817999,1361362586.660164,16316,-3680,-2776,nan,0.000000
2,5,2,15,4926175,262390709,-1081135544563815378,1361362586.660164,14836,-1716,-1616,nan,0.000000
2,5,2,15,4926175,262390709,-1081135544563812757,1361362586.660164,14804,-1496,-1904,nan,0.000000
2,5,3,15,4926175,262390740,-1081135544563810136,1361362586.662055,15552,-1188,-2096,nan,0.000000
2,5,3,15,4926175,262390740,-1081135544563807515,1361362586.662055,16136,-1020,-1324,nan,0.000000
2,5,3,15,4926175,262390740,-1081135544563804894,1361362586.662055,15820,-1144,-1200,nan,0.000000
2,5,3,15,4926175,262390740,-1081135544563802273,1361362586.662055,16336,-1656,-688,nan,0.000000
2,5,3,15,4926175,262390740,-1081135544563799652,1361362586.662055,16456,-1500,228,nan,0.000000
2,5,4,15,4926175,262390773,-1081135544563797031,1361362586.662587,17500,-996,-364,nan,0.000000
2,5,4,15,4926175,262390773,-1081135544563794410,1361362586.662587,16476,-4192,-2884,nan,0.000000
2,5,4,15,4926175,262390773,-1081135544563791789,1361362586.662587,15704,-3376,-1556,nan,0.000000
2,5,4,15,4926175,262390773,-1081135544563789168,1361362586.662587,15060,-3872,-1028,nan,0.000000
2,5,4,15,4926175,262390773,-1081135544563786547,1361362586.662587,15348,-3684,-680,nan,0.000000
2,5,5,15,4926175,262390804,-1081135544563783926,1361362586.664061,14996,-3528,-412,nan,0.000000
2,5,5,15,4926175,262390804,-1081135544563781305,1361362586.664061,14728,-4144,-104,nan,0.000000
2,5,5,15,4926175,262390804,-1081135544563778684,1361362586.664061,14824,-3564,660,nan,0.000000
2,5,5,15,4926175,262390804,-1081135544563776063,1361362586.664061,15224,-2896,1352,nan,0.000000
2,5,5,15,4926175,262390804,-1081135544563773442,1361362586.664061,14984,-3180,696,nan,0.000000
2,5,6,15,4926175,262390837,-1081135544563770821,1361362586.664594,15944,-3064,1136,nan,0.000000
2,5,6,15,4926175,262390837,-1081135544563768200,1361362586.664594,17100,-2096,1072,nan,0.000000
2,5,6,15,4926175,262390837,-1081135544563765579,1361362586.664594,18332,-4428,-1024,nan,0.000000
2,5,6,15,4926175,262390837,-1081135544563762958,1361362586.664594,15496,-4412,-1900,nan,0.000000
2,5,6,15,4926175,262390837,-1081135544563760337,1361362586.664594,14204,-5012,-3188,nan,0.000000
2,5,7,15,4926175,262390868,-1081135544563757716,1361362589.134218,15828,-2888,-2284,nan,0.000000
2,5,7,15,4926175,262390868,-1081135544563755095,1361362589.134218,15488,-2536,-1796,nan,0.000000
2,5,7,15,4926175,262390868,-1081135544563752474,1361362589.134218,15116,-2664,-1768,nan,0.000000
2,5,7,15,4926175,262390868,-1081135544563749853,1361362589.134218,15544,-2516,-1496,nan,0.000000
2,5,7,15,4926175,262390868,-1081135544563747232,1361362589.134218,15664,-1316,-908,nan,0.000000
1,5,8,0,5007496,262471778,-218397134935026441,1361362589.136267,15924,-1996,-1372,nan,0.000000
1,5,8,1,5007496,262471778,-218397134935023820,1361362589.136267,15856,-3992,-1592,nan,0.000000
2,5,9,1,5007496,262471810,-218397134935021199,1361362589.142414,18052,-1448,-1480,nan,0.000000
2,5,9,1,5007496,262471810,-218397134935018578,1361362589.142414,16536,-5168,-2528,nan,0.000000
2,5,9,1,5007496,262471810,-218397134935015957,1361362589.142414,14508,-5864,-2304,nan,0.000000
2,5,9,1,5007496,262471810,-218397134935013336,1361362589.142414,14392,-6656,-1452,nan,0.000000
2,5,9,1,5007496,262471810,-218397134935010715,1361362589.142414,14792,-6200,-1440,nan,0.000000
2,5,10,1,5007496,262471842,-218397134935008094,1361362589.147194,14212,-5676,-796,nan,0.000000
2,5,10,1,5007496,262471842,-218397134935005473,1361362589.147194,13684,-6692,-704,nan,0.000000
2,5,10,1,5007496,262471842,-218397134935002852,1361362589.147194,14364,-6008,24,nan,0.000000
2,5,10,1,5007496,262471842,-218397134935000231,1361362589.147194,14520,-5004,928,nan,0.000000
2,5,10,1,5007496,262471842,-218397134934997610,1361362589.147194,14776,-4524,1560,nan,0.000000
2,5,11,1,5007496,262471874,-218397134934994989,1361362589.149996,14928,-4516,1668,nan,0.000000
2,5,11,1,5007496,262471874,-218397134934992368,1361362589.149996,16436,-2276,2612,nan,0.000000
2,5,11,1,5007496,262471874,-218397134934989747,1361362589.149996,18472,-7160,-1100,nan,0.000000
2,5,11,1,5007496,262471874,-218397134934987126,1361362589.149996,15388,-3912,-204,nan,0.000000
2,5,11,1,5007496,262471874,-218397134934984505,1361362589.149996,13440,-3576,-2464,nan,0.000000
2,5,12,1,5007496,262471906,-218397134934981884,1361362589.153072,16940,-4112,-3224,nan,0.000000
2,5,12,1,5007496,262471906,-218397134934979263,1361362589.153072,15492,-1316,-1452,nan,0.000000
2,5,12,1,5007496,262471906,-218397134934976642,1361362589.153072,14524,-2372,-1924,nan,0.000000
2,5,12,1,5007496,262471906,-218397134934974021,1361362589.153072,15760,-1760,-2024,nan,0.000000
2,5,12,1,5007496,262471906,-218397134934971400,1361362589.153072,15908,-2104,-1464,nan,0.000000
2,5,13,1,5007496,262471938,-218397134934968779,1361362589.155863,15828,-948,-1060,nan,0.000000
2,5,13,1,5007496,262471938,-218397134934966158,1361362589.155863,16428,-1436,-1008,nan,0.000000
2,5,13,1,5007496,262471938,-218397134934963537,1361362589.155863,16536,-2252,-200,nan,0.000000
2,5,13,1,5007496,262471938,-218397134934960916,1361362589.155863,18064,-1508,-1024,nan,0.000000
2,5,13,1,5007496,262471938,-218397134934958295,1361362589.155863,18212,-2164,-1580,nan,0.000000
2,5,14,1,5007496,262471970,-218397134934955674,1361362591.616089,12476,-5220,-1252,nan,0.000000
2,5,14,1,5007496,262471970,-218397134934953053,1361362591.616089,15036,-5164,-1688,nan,0.000000
2,5,14,1,5007496,262471970,-218397134934950432,1361362591.616089,15940,-3676,-1156,nan,0.000000
2,5,14,1,5007496,262471970,-218397134934947811,1361362591.616089,14992,-4112,-264,nan,0.000000
2,5,14,1,5007496,262471970,-218397134934945190,1361362591.616089,14576,-3676,436,nan,0.000000
1,5,15,0,5088817,262553104,7564311158085786875,1361362591.617340,14536,-3128,1380,nan,0.000000
1,5,15,0,5088817,262553104,7564311158085789496,1361362591.617340,15324,-4940,-208,nan,0.000000
2,5,0,0,5088817,262553136,7564311158085792117,1361362591.617853,17420,-916,2388,nan,0.000000
2,5,0,0,5088817,262553136,7564311158085794738,1361362591.617853,18416,-5284,-1320,nan,0.000000
2,5,0,0,5088817,262553136,7564311158085797359,1361362591.617853,15028,-3396,-1060,nan,0.000000
2,5,0,0,5088817,262553136,7564311158085799980,1361362591.617853,14416,-3120,-3688,nan,0.000000
2,5,0,0,5088817,262553136,7564311158085802601,1361362591.617853,16488,-2112,-2796,nan,0.000000
2,5,1,0,5088817,262553168,7564311158085805222,1361362591.618819,15416,-1740,-1920,nan,0.000000
2,5,1,0,5088817,262553168,7564311158085807843,1361362591.618819,15044,-1528,-1804,nan,0.000000
2,5,1,0,5088817,262553168,7564311158085810464,1361362591.618819,16000,-480,-1680,nan,0.000000
2,5,1,0,5088817,262553168,7564311158085813085,1361362591.618819,15720,-1504,-2092,nan,0.000000
2,5,1,0,5088817,262553168,7564311158085815706,1361362591.618819,16096,-332,-1864,nan,0.000000
2,5,2,0,5088817,262553200,7564311158085818327,1361362591.619794,16108,-540,-1532,nan,0.000000
2,5,2,0,5088817,262553200,7564311158085820948,1361362591.619794,16032,-172,-432,nan,0.000000
2,5,2,0,5088817,262553200,7564311158085823569,1361362591.619794,17568,-272,-1196,nan,0.000000
2,5,2,0,5088817,262553200,7564311158085826190,1361362591.619794,17760,-2716,-3048,nan,0.000000
2,5,2,0,5088817,262553200,7564311158085828811,1361362591.619794,13472,-2744,-1816,nan,0.000000
2,5,3,0,5088817,262553232,7564311158085831432,1361362591.620517,15584,-3976,-1924,nan,0.000000
2,5,3,0,5088817,262553232,7564311158085834053,1361362591.620517,17788,-3272,-1348,nan,0.000000
2,5,3,0,5088817,262553232,7564311158085836674,1361362591.620517,14952,-2388,-536,nan,0.000000
2,5,3,0,5088817,262553232,7564311158085839295,1361362591.620517,14560,-3276,-1016,nan,0.000000
2,5,3,0,5088817,262553232,7564311158085841916,1361362591.620517,14860,-3668,-824,nan,0.000000
2,5,4,0,5088817,262553264,7564311158085844537,1361362591.621746,15412,-3260,-288,nan,0.000000
2,5,4,0,5088817,262553264,7564311158085847158,1361362591.621746,14968,-4196,-296,nan,0.000000
2,5,4,0,5088817,262553264,7564311158085849779,1361362591.621746,15472,-3144,-512,nan,0.000000
2,5,4,0,5088817,262553264,7564311158085852400,1361362591.621746,16192,-2120,456,nan,0.000000
2,5,4,0,5088817,262553264,7564311158085855021,1361362591.621746,17076,-4384,-2040,nan,0.000000
2,5,5,0,5088817,262553296,7564311158085857642,1361362594.098111,17672,-4444,-2192,nan,0.000000
2,5,5,0,5088817,262553296,7564311158085860263,1361362594.098111,14312,-2512,-2156,nan,0.000000
2,5,5,0,5088817,262553296,7564311158085862884,1361362594.098111,14168,-2192,-4080,nan,0.000000
2,5,5,0,5088817,262553296,7564311158085865505,1361362594.098111,16816,-1656,-3988,nan,0.000000
2,5,5,0,5088817,262553296,7564311158085868126,1361362594.098111,15384,-1536,-2688,nan,0.000000
1,5,6,0,5170136,262634427,-7712641999832649481,1361362594.099391,15596,-364,-2828,nan,0.000000
1,5,6,0,5170136,262634427,-7712641999832646860,1361362594.099391,15548,-744,-2820,nan,0.000000
2,5,7,0,5170136,262634458,-7712641999832644239,1361362594.099923,15972,-452,-2528,nan,0.000000
2,5,7,0,5170136,262634458,-7712641999832641618,1361362594.099923,15876,-796,-2316,nan,0.000000
2,5,7,0,5170136,262634458,-7712641999832638997,1361362594.099923,15924,-864,-1800,nan,0.000000
2,5,7,0,5170136,262634458,-7712641999832636376,1361362594.099923,16364,-752,-1148,nan,0.000000
2,5,7,0,5170136,262634458,-7712641999832633755,1361362594.099923,17152,-2044,-1852,nan,0.000000
2,5,8,0,5170136,262634490,-7712641999832631134,1361362594.100788,17372,-1640,-2984,nan,0.000000
2,5,8,0,5170136,262634490,-7712641999832628513,1361362594.100788,15760,-1552,-1604,nan,0.000000
2,5,8,0,5170136,262634490,-7712641999832625892,1361362594.100788,15008,-4304,-3076,nan,0.000000
2,5,8,0,5170136,262634490,-7712641999832623271,1361362594.100788,15204,-4116,-2180,nan,0.000000
2,5,8,0,5170136,262634490,-7712641999832620650,1361362594.100788,15700,-3612,-1416,nan,0.000000
2,5,9,0,5170136,262634522,-7712641999832618029,1361362594.101833,14940,-3808,-1384,nan,0.000000
2,5,9,0,5170136,262634522,-7712641999832615408,1361362594.101833,14808,-4396,-1204,nan,0.000000
2,5,9,0,5170136,262634522,-7712641999832612787,1361362594.101833,15060,-4112,-576,nan,0.000000
2,5,9,0,5170136,262634522,-7712641999832610166,1361362594.101833,14824,-3960,-300,nan,0.000000
2,5,9,0,5170136,262634522,-7712641999832607545,1361362594.101833,14736,-5492,-928,nan,0.000000
2,5,10,0,5170136,262634554,-7712641999832604924,1361362594.102608,15336,-3884,-680,nan,0.000000
2,5,10,0,5170136,262634554,-7712641999832602303,1361362594.102608,16008,-4528,-736,nan,0.000000
2,5,10,0,5170136,262634554,-7712641999832599682,1361362594.102608,15844,-3840,-60,nan,0.000000
2,5,10,0,5170136,262634554,-7712641999832597061,1361362594.102608,16408,-4488,-1328,nan,0.000000
2,5,10,0,5170136,262634554,-7712641999832594440,1361362594.102608,16064,-3620,-1800,nan,0.000000
2,5,11,0,5170136,262634586,-7712641999832591819,1361362594.103699,15280,-2216,-2352,nan,0.000000
2,5,11,0,5170136,262634586,-7712641999832589198,1361362594.103699,17036,-2152,-2504,nan,0.000000
2,5,11,0,5170136,262634586,-7712641999832586577,1361362594.103699,15072,-2004,-2156,nan,0.000000
2,5,11,0,5170136,262634586,-7712641999832583956,1361362594.103699,15200,-1296,-1976,nan,0.000000
2,5,11,0,5170136,262634586,-7712641999832581335,1361362594.103699,16292,-864,-2020,nan,0.000000
2,5,12,0,5170136,262634618,-7712641999832578714,1361362596.580007,15952,-656,-1016,nan,0.000000
2,5,12,0,5170136,262634618,-7712641999832576093,1361362596.580007,15712,-244,-1176,nan,0.000000
2,5,12,0,5170136,262634618,-7712641999832573472,1361362596.580007,15976,-564,-960,nan,0.000000
2,5,12,0,5170136,262634618,-7712641999832570851,1361362596.580007,15392,-992,-856,nan,0.000000
2,5,12,0,5170136,262634618,-7712641999832568230,1361362596.580007,17472,148,104,nan,0.000000
1,5,13,0,5251454,262715750,7564654290069686524,1361362596.581309,13736,-4088,-2120,nan,0.000000
1,5,13,0,5251454,262715750,7564654290069689145,1361362596.581309,14940,-4496,240,nan,0.000000
2,5,14,0,5251454,262715781,7564654290069691766,1361362596.581790,16300,-4192,-892,nan,0.000000
2,5,14,0,5251454,262715781,7564654290069694387,1361362596.581790,14592,-3196,372,nan,0.000000
2,5,14,0,5251454,262715781,7564654290069697008,1361362596.581790,14888,-4040,500,nan,0.000000
2,5,14,0,5251454,262715781,7564654290069699629,1361362596.581790,14936,-4012,-580,nan,0.000000
2,5,14,0,5251454,262715781,7564654290069702250,1361362596.581790,14932,-2364,800,nan,0.000000
2,5,15,0,5251454,262715813,7564654290069704871,1361362596.583156,15532,-2068,448,nan,0.000000
2,5,15,0,5251454,262715813,7564654290069707492,1361362596.583156,16204,-1640,816,nan,0.000000
2,5,15,0,5251454,262715813,7564654290069710113,1361362596.583156,18272,-2464,-768,nan,0.000000
2,5,15,0,5251454,262715813,7564654290069712734,1361362596.583156,18652,-5280,-1400,nan,0.000000
2,5,15,0,5251454,262715813,7564654290069715355,1361362596.583156,13548,-1008,-1508,nan,0.000000
2,5,0,0,5251454,262715845,7564654290069717976,1361362596.584040,15740,-3504,-2900,nan,0.000000
2,5,0,0,5251454,262715845,7564654290069720597,1361362596.584040,16116,-1872,-1404,nan,0.000000
2,5,0,0,5251454,262715845,7564654290069723218,1361362596.584040,15112,-696,-1296,nan,0.000000
2,5,0,0,5251454,262715845,7564654290069725839,1361362596.584040,15232,-656,-1040,nan,0.000000
2,5,0,0,5251454,262715845,7564654290069728460,1361362596.584040,15880,-360,-856,nan,0.000000
2,5,1,0,5251454,262715877,7564654290069731081,1361362596.584710,16064,-80,-724,nan,0.000000
2,5,1,0,5251454,262715877,7564654290069733702,1361362596.584710,16080,-652,-804,nan,0.000000
2,5,1,0,5251454,262715877,7564654290069736323,1361362596.584710,15984,-1024,-348,nan,0.000000
2,5,1,0,5251454,262715877,7564654290069738944,1361362596.584710,16836,-596,196,nan,0.000000
2,5,1,0,5251454,262715877,7564654290069741565,1361362596.584710,19424,-1228,-1408,nan,0.000000
2,5,2,0,5251454,262715909,7564654290069744186,1361362596.585696,15064,-4840,-2412,nan,0.000000
2,5,2,0,5251454,262715909,7564654290069746807,1361362596.585696,13812,-3200,-1240,nan,0.000000
2,5,2,0,5251454,262715909,7564654290069749428,1361362596.585696,16528,-4276,-904,nan,0.000000
2,5,2,0,5251454,262715909,7564654290069752049,1361362596.585696,15296,-2580,-112,nan,0.000000
2,5,2,0,5251454,262715909,7564654290069754670,1361362596.585696,14796,-1616,1000,nan,0.000000
2,5,3,0,5251454,262715941,7564654290069757291,1361362599.061990,14616,-2832,-496,nan,0.000000
2,5,3,0,5251454,262715941,7564654290069759912,1361362599.061990,15508,-2408,316,nan,0.000000
2,5,3,0,5251454,262715941,7564654290069762533,1361362599.061990,14636,-1688,1372,nan,0.000000
2,5,3,0,5251454,262715941,7564654290069765154,1361362599.061990,15624,-3224,56,nan,0.000000
2,5,3,0,5251454,262715941,7564654290069767775,1361362599.061990,19260,-324,2276,nan,0.000000
1,5,4,0,5332774,262797073,4323905302068728062,1361362599.063151,13848,-3952,-2100,nan,0.000000
1,5,4,0,5332774,262797073,4323905302068730683,1361362599.063151,14752,-3612,-3316,nan,0.000000
2,5,5,0,5332774,262797105,4323905302068733304,1361362599.063619,15728,-1868,-1780,nan,0.000000
2,5,5,0,5332774,262797105,4323905302068735925,1361362599.063619,14600,-1568,-1588,nan,0.000000
2,5,5,0,5332774,262797105,4323905302068738546,1361362599.063619,14928,-668,-1288,nan,0.000000
2,5,5,0,5332774,262797105,4323905302068741167,1361362599.063619,15252,-948,-1476,nan,0.000000
2,5,5,0,5332774,262797105,4323905302068743788,1361362599.063619,15628,-400,-1012,nan,0.000000
2,5,6,0,5332774,262797137,4323905302068746409,1361362599.070234,17752,-1424,-1804,nan,0.000000
2,5,6,0,5332774,262797137,4323905302068749030,1361362599.070234,19676,152,-1764,nan,0.000000
2,5,6,0,5332774,262797137,4323905302068751651,1361362599.070234,15056,-4724,-1856,nan,0.000000
2,5,6,0,5332774,262797137,4323905302068754272,1361362599.070234,15584,-3592,-1312,nan,0.000000
2,5,6,0,5332774,262797137,4323905302068756893,1361362599.070234,15036,-3108,-232,nan,0.000000
2,5,7,0,5332774,262797169,4323905302068759514,1361362599.075165,14172,-3024,-112,nan,0.000000
2,5,7,0,5332774,262797169,4323905302068762135,1361362599.075165,14836,-2744,-256,nan,0.000000
2,5,7,0,5332774,262797169,4323905302068764756,1361362599.075165,14764,-1836,736,nan,0.000000
2,5,7,0,5332774,262797169,4323905302068767377,1361362599.075165,14756,-2276,1184,nan,0.000000
2,5,7,0,5332774,262797169,4323905302068769998,1361362599.075165,16500,-4920,-272,nan,0.000000
2,5,8,0,5332774,262797201,4323905302068772619,1361362599.078281,18860,2816,2804,nan,0.000000
2,5,8,0,5332774,262797201,4323905302068775240,1361362599.078281,18956,-5888,-1948,nan,0.000000
2,5,8,0,5332774,262797201,4323905302068777861,1361362599.078281,13736,-2036,-1944,nan,0.000000
2,5,8,0,5332774,262797201,4323905302068780482,1361362599.078281,15604,-4324,-2612,nan,0.000000
2,5,8,0,5332774,262797201,4323905302068783103,1361362599.078281,14660,-1544,-1760,nan,0.000000
2,5,9,0,5332774,262797233,4323905302068785724,1361362599.080876,15872,-2040,-2008,nan,0.000000
2,5,9,0,5332774,262797233,4323905302068788345,1361362599.080876,14916,-976,-1312,nan,0.000000
2,5,9,0,5332774,262797233,4323905302068790966,1361362599.080876,14980,-1204,-1624,nan,0.000000
2,5,9,0,5332774,262797233,4323905302068793587,1361362599.080876,15944,-736,-1180,nan,0.000000
2,5,9,0,5332774,262797233,4323905302068796208,1361362599.080876,16992,-1548,-1504,nan,0.000000
2,5,10,0,5332774,262797265,4323905302068798829,1361362601.543928,18940,-1516,196,nan,0.000000
2,5,10,0,5332774,262797265,4323905302068801450,1361362601.543928,16160,-4164,-2968,nan,0.000000
2,5,10,0,5332774,262797265,4323905302068804071,1361362601.543928,15016,-5192,-2604,nan,0.000000
2,5,10,0,5332774,262797265,4323905302068806692,1361362601.543928,15756,-4336,-280,nan,0.000000
2,5,10,0,5332774,262797265,4323905302068809313,1361362601.543928,14676,-2640,-96,nan,0.000000
1,5,11,0,5414091,262878392,7562877409486160896,1361362601.545262,14732,-2600,480,nan,0.000000
1,5,11,0,5414091,262878392,7562877409486163517,1361362601.545262,15160,-2964,1404,nan,0.000000
2,5,12,0,5414091,262878424,7562877409486166138,1361362601.545862,15356,-2564,692,nan,0.000000
2,5,12,0,5414091,262878424,7562877409486168759,1361362601.545862,17916,-1052,2564,nan,0.000000
2,5,12,0,5414091,262878424,7562877409486171380,1361362601.545862,19396,-4252,-1724,nan,0.000000
2,5,12,0,5414091,262878424,7562877409486174001,1361362601.545862,13996,-2208,-1980,nan,0.000000
2,5,12,0,5414091,262878424,7562877409486176622,1361362601.545862,16228,-3084,-4476,nan,0.000000
2,5,13,0,5414091,262878456,7562877409486179243,1361362601.546924,15364,-2232,-2760,nan,0.000000
2,5,13,0,5414091,262878456,7562877409486181864,1361362601.546924,14532,-1580,-2732,nan,0.000000
2,5,13,0,5414091,262878456,7562877409486184485,1361362601.546924,15304,-224,-2132,nan,0.000000
2,5,13,0,5414091,262878456,7562877409486187106,1361362601.546924,15804,-1036,-2388,nan,0.000000
2,5,13,0,5414091,262878456,7562877409486189727,1361362601.546924,15696,-1124,-1768,nan,0.000000
2,5,14,0,5414091,262878488,7562877409486192348,1361362601.547715,16128,-1052,-2180,nan,0.000000
2,5,14,0,5414091,262878488,7562877409486194969,1361362601.547715,17372,-2112,-960,nan,0.000000
2,5,14,0,5414091,262878488,7562877409486197590,1361362601.547715,18408,-2524,-2136,nan,0.000000
2,5,14,0,5414091,262878488,7562877409486200211,1361362601.547715,13908,-4096,-2968,nan,0.000000
2,5,14,0,5414091,262878488,7562877409486202832,1361362601.547715,15736,-3708,-1212,nan,0.000000
2,5,15,0,5414091,262878520,7562877409486205453,1361362601.548566,15828,-4120,-1332,nan,0.000000
2,5,15,0,5414091,262878520,7562877409486208074,1361362601.548566,13908,-2648,-204,nan,0.000000
2,5,15,0,5414091,262878520,7562877409486210695,1361362601.548566,15044,-3660,232,nan,0.000000
2,5,15,0,5414091,262878520,7562877409486213316,1361362601.548566,15384,-2848,468,nan,0.000000
2,5,15,0,5414091,262878520,7562877409486215937,1361362601.548566,14896,-1780,1784,nan,0.000000
2,5,0,0,5414091,262878552,7562877409486218558,1361362601.549658,15008,-2160,696,nan,0.000000
2,5,0,0,5414091,262878552,7562877409486221179,1361362601.549658,18332,96,2252,nan,0.000000
2,5,0,0,5414091,262878552,7562877409486223800,1361362601.549658,20332,-6096,-2372,nan,0.000000
2,5,0,0,5414091,262878552,7562877409486226421,1361362601.549658,13012,-3148,-1212,nan,0.000000
2,5,0,0,5414091,262878552,7562877409486229042,1361362601.549658,16032,-4928,-3032,nan,0.000000
2,5,1,0,5414091,262878584,7562877409486231663,1361362604.025819,15500,-3160,-1268,nan,0.000000
2,5,1,0,5414091,262878584,7562877409486234284,1361362604.025819,14440,-2988,-1660,nan,0.000000
2,5,1,0,5414091,262878584,7562877409486236905,1361362604.025819,15344,-1572,-1220,nan,0.000000
2,5,1,0,5414091,262878584,7562877409486239526,1361362604.025819,16060,-1276,-1076,nan,0.000000
2,5,1,0,5414091,262878584,7562877409486242147,1361362604.025819,15976,-772,-1084,nan,0.000000
1,5,2,0,5495407,262959713,-8864960982804853509,1361362604.027160,16260,-972,-128,nan,0.000000
1,5,2,0,5495407,262959713,-8864960982804850888,1361362604.027160,18444,-640,388,nan,0.000000
2,5,3,0,5495407,262959745,-8864960982804848267,1361362604.027714,18004,-4140,-2732,nan,0.000000
2,5,3,0,5495407,262959745,-8864960982804845646,1361362604.027714,13144,-4672,-1220,nan,0.000000
2,5,3,0,5495407,262959745,-8864960982804843025,1361362604.027714,16404,-3620,-120,nan,0.000000
2,5,3,0,5495407,262959745,-8864960982804840404,1361362604.027714,15060,-3368,-824,nan,0.000000
2,5,3,0,5495407,262959745,-8864960982804837783,1361362604.027714,14552,-3292,-284,nan,0.000000
2,5,4,0,5495407,262959777,-8864960982804835162,1361362604.029042,14708,-4032,64,nan,0.000000
2,5,4,0,5495407,262959777,-8864960982804832541,1361362604.029042,14628,-3008,1016,nan,0.000000
2,5,4,0,5495407,262959777,-8864960982804829920,1361362604.029042,14392,-2432,824,nan,0.000000
2,5,4,0,5495407,262959777,-8864960982804827299,1361362604.029042,15684,-6020,-840,nan,0.000000
2,5,4,0,5495407,262959777,-8864960982804824678,1361362604.029042,18584,1952,3144,nan,0.000000
2,5,5,0,5495407,262959809,-8864960982804822057,1361362604.029958,19040,-6756,-2656,nan,0.000000
2,5,5,0,5495407,262959809,-8864960982804819436,1361362604.029958,14556,-2612,-1436,nan,0.000000
2,5,5,0,5495407,262959809,-8864960982804816815,1361362604.029958,15320,-4720,-3304,nan,0.000000
2,5,5,0,5495407,262959809,-8864960982804814194,1361362604.029958,15608,-2028,-1616,nan,0.000000
2,5,5,0,5495407,262959809,-8864960982804811573,1361362604.029958,14864,-2008,-1348,nan,0.000000
2,5,6,0,5495407,262959841,-8864960982804808952,1361362604.030688,14864,-2172,-1656,nan,0.000000
2,5,6,0,5495407,262959841,-8864960982804806331,1361362604.030688,15836,-1616,-1280,nan,0.000000
2,5,6,0,5495407,262959841,-8864960982804803710,1361362604.030688,15848,-1620,-884,nan,0.000000
2,5,6,0,5495407,262959841,-8864960982804801089,1361362604.030688,15852,-1240,-496,nan,0.000000
2,5,6,0,5495407,262959841,-8864960982804798468,1361362604.030688,16484,-740,-44,nan,0.000000
2,5,7,0,5495407,262959873,-8864960982804795847,1361362604.031434,17016,-2144,-512,nan,0.000000
2,5,7,0,5495407,262959873,-8864960982804793226,1361362604.031434,17952,-2852,-2372,nan,0.000000
2,5,7,0,5495407,262959873,-8864960982804790605,1361362604.031434,14248,-3324,-1464,nan,0.000000
2,5,7,0,5495407,262959873,-8864960982804787984,1361362604.031434,16172,-3616,-2596,nan,0.000000
2,5,7,0,5495407,262959873,-8864960982804785363,1361362604.031434,15284,-3200,-1184,nan,0.000000
2,5,8,0,5495407,262959905,-8864960982804782742,1361362606.507812,14836,-3716,-1272,nan,0.000000
2,5,8,0,5495407,262959905,-8864960982804780121,1361362606.507812,14708,-2632,-736,nan,0.000000
2,5,8,0,5495407,262959905,-8864960982804777500,1361362606.507812,14456,-3048,-296,nan,0.000000
2,5,8,0,5495407,262959905,-8864960982804774879,1361362606.507812,15280,-1988,-16,nan,0.000000
2,5,8,0,5495407,262959905,-8864960982804772258,1361362606.507812,15308,-2764,-532,nan,0.000000
1,5,9,0,5576725,263041037,2377259542677883131,1361362606.508938,18936,-5496,-4524,nan,0.000000
1,5,9,0,5576725,263041037,2377259542677885752,1361362606.508938,15004,-1252,-2084,nan,0.000000
2,5,10,0,5576725,263041069,2377259542677888373,1361362606.509405,15084,-3500,-5256,nan,0.000000
2,5,10,0,5576725,263041069,2377259542677890994,1361362606.509405,15644,-2356,-2912,nan,0.000000
2,5,10,0,5576725,263041069,2377259542677893615,1361362606.509405,14080,-1628,-3048,nan,0.000000
2,5,10,0,5576725,263041069,2377259542677896236,1361362606.509405,14972,-948,-2300,nan,0.000000
2,5,10,0,5576725,263041069,2377259542677898857,1361362606.509405,15760,-896,-2212,nan,0.000000
2,5,11,0,5576725,263041101,2377259542677901478,1361362606.510316,16008,-1276,-1688,nan,0.000000
2,5,11,0,5576725,263041101,2377259542677904099,1361362606.510316,16064,-552,-1288,nan,0.000000
2,5,11,0,5576725,263041101,2377259542677906720,1361362606.510316,16908,-752,-600,nan,0.000000
2,5,11,0,5576725,263041101,2377259542677909341,1361362606.510316,18276,220,24,nan,0.000000
2,5,11,0,5576725,263041101,2377259542677911962,1361362606.510316,16164,-3220,-2436,nan,0.000000
2,5,12,0,5576725,263041133,2377259542677914583,1361362606.511425,14232,-4564,-1288,nan,0.000000
2,5,12,0,5576725,263041133,2377259542677917204,1361362606.511425,16808,-3144,-612,nan,0.000000
2,5,12,0,5576725,263041133,2377259542677919825,1361362606.511425,14700,-3888,-848,nan,0.000000
2,5,12,0,5576725,263041133,2377259542677922446,1361362606.511425,14616,-3344,112,nan,0.000000
2,5,12,0,5576725,263041133,2377259542677925067,1361362606.511425,14964,-3044,456,nan,0.000000
2,5,13,0,5576725,263041165,2377259542677927688,1361362606.513457,15136,-2912,816,nan,0.000000
2,5,13,0,5576725,263041165,2377259542677930309,1361362606.513457,14856,-2600,1372,nan,0.000000
2,5,13,0,5576725,263041165,2377259542677932930,1361362606.513457,15976,-2856,888,nan,0.000000
2,5,13,0,5576725,263041165,2377259542677935551,1361362606.513457,18612,-540,2004,nan,0.000000
2,5,13,0,5576725,263041165,2377259542677938172,1361362606.513457,18916,-6432,-2244,nan,0.000000
2,5,14,0,5576725,263041197,2377259542677940793,1361362606.514350,13448,-1160,-1008,nan,0.000000
2,5,14,0,5576725,263041197,2377259542677943414,1361362606.514350,16868,-3772,-3784,nan,0.000000
2,5,14,0,5576725,263041197,2377259542677946035,1361362606.514350,15216,-2148,-1068,nan,0.000000
2,5,14,0,5576725,263041197,2377259542677948656,1361362606.514350,14984,-1952,-1548,nan,0.000000
2,5,14,0,5576725,263041197,2377259542677951277,1361362606.514350,15440,-524,-324,nan,0.000000
2,5,15,0,5576725,263041229,2377259542677953898,1361362608.987741,15760,-1124,-504,nan,0.000000
2,5,15,0,5576725,263041229,2377259542677956519,1361362608.987741,15476,-744,-72,nan,0.000000
2,5,15,0,5576725,263041229,2377259542677959140,1361362608.987741,15884,-1464,-712,nan,0.000000
2,5,15,0,5576725,263041229,2377259542677961761,1361362608.987741,16568,-2348,252,nan,0.000000
2,5,15,0,5576725,263041229,2377259542677964382,1361362608.987741,19076,120,-308,nan,0.000000
1,5,0,0,5658042,263122356,-5116343174813710082,1361362608.989379,13360,-3884,-1032,nan,0.000000
1,5,0,0,5658042,263122356,-5116343174813707461,1361362608.989379,16944,-3804,-588,nan,0.000000
2,5,1,0,5658042,263122388,-5116343174813704840,1361362608.989977,14776,-3080,-280,nan,0.000000
2,5,1,0,5658042,263122388,-5116343174813702219,1361362608.989977,14496,-2680,436,nan,0.000000
2,5,1,0,5658042,263122388,-5116343174813699598,1361362608.989977,14736,-2836,820,nan,0.000000
2,5,1,0,5658042,263122388,-5116343174813696977,1361362608.989977,15192,-1984,1632,nan,0.000000
2,5,1,0,5658042,263122388,-5116343174813694356,1361362608.989977,15516,-2972,972,nan,0.000000
2,5,2,0,5658042,263122419,-5116343174813691735,1361362608.991338,16996,-2624,2148,nan,0.000000
2,5,2,0,5658042,263122419,-5116343174813689114,1361362608.991338,18500,-3084,268,nan,0.000000
2,5,2,0,5658042,263122419,-5116343174813686493,1361362608.991338,17280,-3752,-920,nan,0.000000
2,5,2,0,5658042,263122419,-5116343174813683872,1361362608.991338,12908,-1416,-2572,nan,0.000000
2,5,2,0,5658042,263122419,-5116343174813681251,1361362608.991338,17136,-3412,-2928,nan,0.000000
2,5,3,0,5658042,263122452,-5116343174813678630,1361362608.992196,14980,-2548,-1516,nan,0.000000
2,5,3,0,5658042,263122452,-5116343174813676009,1361362608.992196,14948,-1640,-1380,nan,0.000000
2,5,3,0,5658042,263122452,-5116343174813673388,1361362608.992196,15688,-780,-1152,nan,0.000000
2,5,3,0,5658042,263122452,-5116343174813670767,1361362608.992196,15756,-956,-1004,nan,0.000000
2,5,3,0,5658042,263122452,-5116343174813668146,1361362608.992196,15888,-760,-812,nan,0.000000
2,5,4,0,5658042,263122483,-5116343174813665525,1361362608.993390,16372,-1776,-1124,nan,0.000000
2,5,4,0,5658042,263122483,-5116343174813662904,1361362608.993390,16476,-852,168,nan,0.000000
2,5,4,0,5658042,263122483,-5116343174813660283,1361362608.993390,18664,-1152,-652,nan,0.000000
2,5,4,0,5658042,263122483,-5116343174813657662,1361362608.993390,15920,-2832,-3016,nan,0.000000
2,5,4,0,5658042,263122483,-5116343174813655041,1361362608.993390,14332,-3704,-780,nan,0.000000
2,5,5,0,5658042,263122516,-5116343174813652420,1361362608.994458,16852,-2632,-780,nan,0.000000
2,5,5,0,5658042,263122516,-5116343174813649799,1361362608.994458,14752,-1988,-144,nan,0.000000
2,5,5,0,5658042,263122516,-5116343174813647178,1361362608.994458,14952,-2836,-160,nan,0.000000
2,5,5,0,5658042,263122516,-5116343174813644557,1361362608.994458,14772,-2756,296,nan,0.000000
2,5,5,0,5658042,263122516,-5116343174813641936,1361362608.994458,15424,-1944,1280,nan,0.000000
2,5,6,0,5658042,263122547,-5116343174813639315,1361362611.469684,14812,-3704,340,nan,0.000000
2,5,6,0,5658042,263122547,-5116343174813636694,1361362611.469684,17212,-3260,896,nan,0.000000
2,5,6,0,5658042,263122547,-5116343174813634073,1361362611.469684,18968,-2268,620,nan,0.000000
2,5,6,0,5658042,263122547,-5116343174813631452,1361362611.469684,16416,-4864,-1488,nan,0.000000
2,5,6,0,5658042,263122547,-5116343174813628831,1361362611.469684,13996,-1144,-2372,nan,0.000000
1,5,7,0,5739358,263203677,-9222451800445856767,1361362611.471323,14696,-2244,-2300,nan,0.000000
1,5,7,0,5739358,263203677,-9222451800445854146,1361362611.471323,15520,-828,-812,nan,0.000000
2,5,8,0,5739358,263203709,-9222451800445851525,1361362611.471720,15292,-1036,-1220,nan,0.000000
2,5,8,0,5739358,263203709,-9222451800445848904,1361362611.471720,15680,-1156,-772,nan,0.000000
2,5,8,0,5739358,263203709,-9222451800445846283,1361362611.471720,16084,-652,-1308,nan,0.000000
2,5,8,0,5739358,263203709,-9222451800445843662,1361362611.471720,16588,-3176,-1032,nan,0.000000
2,5,8,0,5739358,263203709,-9222451800445841041,1361362611.471720,19960,48,-476,nan,0.000000
2,5,9,0,5739358,263203741,-9222451800445838420,1361362611.473356,16392,-3804,-2820,nan,0.000000
2,5,9,0,5739358,263203741,-9222451800445835799,1361362611.473356,12256,-3512,-356,nan,0.000000
2,5,9,0,5739358,263203741,-9222451800445833178,1361362611.473356,16868,-4028,-448,nan,0.000000
2,5,9,0,5739358,263203741,-9222451800445830557,1361362611.473356,15404,-2992,-500,nan,0.000000
2,5,9,0,5739358,263203741,-9222451800445827936,1361362611.473356,14812,-2896,604,nan,0.000000
2,5,10,0,5739358,263203773,-9222451800445825315,1361362611.474506,14796,-2768,736,nan,0.000000
2,5,10,0,5739358,263203773,-9222451800445822694,1361362611.474506,15356,-2524,1012,nan,0.000000
2,5,10,0,5739358,263203773,-9222451800445820073,1361362611.474506,14384,-3212,812,nan,0.000000
2,5,10,0,5739358,263203773,-9222451800445817452,1361362611.474506,16648,-2172,776,nan,0.000000
2,5,10,0,5739358,263203773,-9222451800445814831,1361362611.474506,17980,556,3004,nan,0.000000
2,5,11,0,5739358,263203805,-9222451800445812210,1361362611.475283,19120,-5136,-1988,nan,0.000000
2,5,11,0,5739358,263203805,-9222451800445809589,1361362611.475283,14488,-2632,-828,nan,0.000000
2,5,11,0,5739358,263203805,-9222451800445806968,1361362611.475283,14500,-3496,-4552,nan,0.000000
2,5,11,0,5739358,263203805,-9222451800445804347,1361362611.475283,16196,-2864,-2300,nan,0.000000
2,5,11,0,5739358,263203805,-9222451800445801726,1361362611.475283,14956,-2168,-2312,nan,0.000000
2,5,12,0,5739358,263203837,-9222451800445799105,1361362611.476303,15328,-1240,-1716,nan,0.000000
2,5,12,0,5739358,263203837,-9222451800445796484,1361362611.476303,15672,-1200,-1868,nan,0.000000
2,5,12,0,5739358,263203837,-9222451800445793863,1361362611.476303,16108,-492,-728,nan,0.000000
2,5,12,0,5739358,263203837,-9222451800445791242,1361362611.476303,16036,-376,-1172,nan,0.000000
2,5,12,0,5739358,263203837,-9222451800445788621,1361362611.476303,15764,-396,-396,nan,0.000000
2,5,13,0,5739358,263203869,-9222451800445786000,1361362613.951605,16304,-1780,-328,nan,0.000000
2,5,13,0,5739358,263203869,-9222451800445783379,1361362613.951605,17380,-1428,564,nan,0.000000
2,5,13,0,5739358,263203869,-9222451800445780758,1361362613.951605,18492,-3560,-1892,nan,0.000000
2,5,13,0,5739358,263203869,-9222451800445778137,1361362613.951605,14068,-2860,-3128,nan,0.000000
2,5,13,0,5739358,263203869,-9222451800445775516,1361362613.951605,15768,-3264,-1404,nan,0.000000
1,5,14,0,5820674,263284997,3747677664752941310,1361362613.953296,14536,-3548,-820,nan,0.000000
1,5,14,0,5820674,263284997,3747677664752943931,1361362613.953296,15128,-2804,-20,nan,0.000000
2,5,15,0,5820674,263285029,3747677664752946552,1361362613.953699,14948,-2588,836,nan,0.000000
2,5,15,0,5820674,263285029,3747677664752949173,1361362613.953699,14956,-2336,1664,nan,0.000000
2,5,15,0,5820674,263285029,3747677664752951794,1361362613.953699,14456,-4124,112,nan,0.000000
2,5,15,0,5820674,263285029,3747677664752954415,1361362613.953699,18524,-1648,2928,nan,0.000000
2,5,15,0,5820674,263285029,3747677664752957036,1361362613.953699,17956,-5304,-8,nan,0.000000
2,5,0,0,5820674,263285060,3747677664752959657,1361362613.955280,16416,-3392,-1504,nan,0.000000
2,5,0,0,5820674,263285060,3747677664752962278,1361362613.955280,14760,-2656,-2396,nan,0.000000
2,5,0,0,5820674,263285060,3747677664752964899,1361362613.955280,15864,-3304,-1380,nan,0.000000
2,5,0,0,5820674,263285060,3747677664752967520,1361362613.955280,14684,-2784,-1924,nan,0.000000
2,5,0,0,5820674,263285060,3747677664752970141,1361362613.955280,15524,-1116,-944,nan,0.000000
2,5,1,0,5820674,263285093,3747677664752972762,1361362613.956073,15968,-1316,-1328,nan,0.000000
2,5,1,0,5820674,263285093,3747677664752975383,1361362613.956073,15764,-1184,-588,nan,0.000000
2,5,1,0,5820674,263285093,3747677664752978004,1361362613.956073,15512,-680,-600,nan,0.000000
2,5,1,0,5820674,263285093,3747677664752980625,1361362613.956073,16388,-764,-376,nan,0.000000
2,5,1,0,5820674,263285093,3747677664752983246,1361362613.956073,17040,-1260,1580,nan,0.000000
2,5,2,0,5820674,263285124,3747677664752985867,1361362613.957243,17332,1076,1840,nan,0.000000
2,5,2,0,5820674,263285124,3747677664752988488,1361362613.957243,16924,-2192,-1200,nan,0.000000
2,5,2,0,5820674,263285124,3747677664752991109,1361362613.957243,14928,-3880,-2148,nan,0.000000
2,5,2,0,5820674,263285124,3747677664752993730,1361362613.957243,15708,-4368,-548,nan,0.000000
2,5,2,0,5820674,263285124,3747677664752996351,1361362613.957243,16496,-3404,-1036,nan,0.000000
2,5,3,0,5820674,263285157,3747677664752998972,1361362613.959796,14472,-3928,-148,nan,0.000000
2,5,3,0,5820674,263285157,3747677664753001593,1361362613.959796,14608,-3028,396,nan,0.000000
2,5,3,0,5820674,263285157,3747677664753004214,1361362613.959796,14764,-3024,776,nan,0.000000
2,5,3,0,5820674,263285157,3747677664753006835,1361362613.959796,14964,-2404,1816,nan,0.000000
2,5,3,0,5820674,263285157,3747677664753009456,1361362613.959796,15152,-3024,1040,nan,0.000000
2,5,4,0,5820674,263285188,3747677664753012077,1361362616.433524,17128,-2388,1244,nan,0.000000
2,5,4,0,5820674,263285188,3747677664753014698,1361362616.433524,18336,-1696,160,nan,0.000000
2,5,4,0,5820674,263285188,3747677664753017319,1361362616.433524,17988,-4572,-336,nan,0.000000
2,5,4,0,5820674,263285188,3747677664753019940,1361362616.433524,13612,-1836,-1304,nan,0.000000
2,5,4,0,5820674,263285188,3747677664753022561,1361362616.433524,16336,-4428,-2848,nan,0.000000
1,5,5,0,5901989,263366315,-6917422402388894716,1361362616.435210,14948,-1952,-1232,nan,0.000000
1,5,5,0,5901989,263366315,-6917422402388892095,1361362616.435210,15432,-1272,-992,nan,0.000000
2,5,6,0,5901989,263366347,-6917422402388889474,1361362616.435809,15728,-548,-948,nan,0.000000
2,5,6,0,5901989,263366347,-6917422402388886853,1361362616.435809,15960,-468,-456,nan,0.000000
2,5,6,0,5901989,263366347,-6917422402388884232,1361362616.435809,16084,-460,20,nan,0.000000
2,5,6,0,5901989,263366347,-6917422402388881611,1361362616.435809,16280,-488,1224,nan,0.000000
2,5,6,0,5901989,263366347,-6917422402388878990,1361362616.435809,18164,-464,1604,nan,0.000000
2,5,7,0,5901989,263366379,-6917422402388876369,1361362616.437202,17460,-3184,-1656,nan,0.000000
2,5,7,0,5901989,263366379,-6917422402388873748,1361362616.437202,13608,-4232,-1360,nan,0.000000
2,5,7,0,5901989,263366379,-6917422402388871127,1361362616.437202,17220,-3124,396,nan,0.000000
2,5,7,0,5901989,263366379,-6917422402388868506,1361362616.437202,15184,-3168,-968,nan,0.000000
2,5,7,0,5901989,263366379,-6917422402388865885,1361362616.437202,14408,-2472,336,nan,0.000000
2,5,8,0,5901989,263366411,-6917422402388863264,1361362616.438009,15136,-2768,228,nan,0.000000
2,5,8,0,5901989,263366411,-6917422402388860643,1361362616.438009,14792,-1652,1104,nan,0.000000
2,5,8,0,5901989,263366411,-6917422402388858022,1361362616.438009,14664,-2392,848,nan,0.000000
2,5,8,0,5901989,263366411,-6917422402388855401,1361362616.438009,16776,-3892,716,nan,0.000000
2,5,8,0,5901989,263366411,-6917422402388852780,1361362616.438009,19512,-388,648,nan,0.000000
2,5,9,0,5901989,263366443,-6917422402388850159,1361362616.439198,17956,-4964,-768,nan,0.000000
2,5,9,0,5901989,263366443,-6917422402388847538,1361362616.439198,13248,-1632,-2656,nan,0.000000
2,5,9,0,5901989,263366443,-6917422402388844917,1361362616.439198,16664,-3240,-2124,nan,0.000000
2,5,9,0,5901989,263366443,-6917422402388842296,1361362616.439198,14704,-1796,-1628,nan,0.000000
2,5,9,0,5901989,263366443,-6917422402388839675,1361362616.439198,14760,-884,-1356,nan,0.000000
2,5,10,0,5901989,263366475,-6917422402388837054,1361362616.440232,15796,-404,-824,nan,0.000000
2,5,10,0,5901989,263366475,-6917422402388834433,1361362616.440232,15440,-624,-532,nan,0.000000
2,5,10,0,5901989,263366475,-6917422402388831812,1361362616.440232,15968,-796,-1400,nan,0.000000
2,5,10,0,5901989,263366475,-6917422402388829191,1361362616.440232,16764,-2048,-864,nan,0.000000
2,5,10,0,5901989,263366475,-6917422402388826570,1361362616.440232,18936,600,-132,nan,0.000000
2,5,11,0,5901989,263366507,-6917422402388823949,1361362618.915471,17040,-2752,-2296,nan,0.000000
2,5,11,0,5901989,263366507,-6917422402388821328,1361362618.915471,13008,-3320,-1320,nan,0.000000
2,5,11,0,5901989,263366507,-6917422402388818707,1361362618.915471,17372,-2664,-160,nan,0.000000
2,5,11,0,5901989,263366507,-6917422402388816086,1361362618.915471,15556,-2356,-1132,nan,0.000000
2,5,11,0,5901989,263366507,-6917422402388813465,1361362618.915471,14500,-2396,176,nan,0.000000
1,5,12,0,5983305,263447635,-2811925174076438281,1361362618.917268,15148,-2016,252,nan,0.000000
1,5,12,0,5983305,263447635,-2811925174076435660,1361362618.917268,14888,-2208,220,nan,0.000000
2,5,13,0,5983305,263447667,-2811925174076433039,1361362618.917819,16148,-3676,-56,nan,0.000000
2,5,13,0,5983305,263447667,-2811925174076430418,1361362618.917819,17924,556,2220,nan,0.000000
2,5,13,0,5983305,263447667,-2811925174076427797,1361362618.917819,18644,-4912,-2220,nan,0.000000
2,5,13,0,5983305,263447667,-2811925174076425176,1361362618.917819,14064,-2496,-1384,nan,0.000000
2,5,13,0,5983305,263447667,-2811925174076422555,1361362618.917819,15900,-4312,-4280,nan,0.000000
2,5,14,0,5983305,263447699,-2811925174076419934,1361362618.918946,16500,-1860,-1224,nan,0.000000
2,5,14,0,5983305,263447699,-2811925174076417313,1361362618.918946,14160,-2312,-2236,nan,0.000000
2,5,14,0,5983305,263447699,-2811925174076414692,1361362618.918946,15408,-1212,-1472,nan,0.000000
2,5,14,0,5983305,263447699,-2811925174076412071,1361362618.918946,15708,-544,-1172,nan,0.000000
2,5,14,0,5983305,263447699,-2811925174076409450,1361362618.918946,15020,-276,-632,nan,0.000000
2,5,15,0,5983305,263447730,-2811925174076406829,1361362618.919721,16440,-220,-1292,nan,0.000000
2,5,15,0,5983305,263447730,-2811925174076404208,1361362618.919721,16976,-2148,-348,nan,0.000000
2,5,15,0,5983305,263447730,-2811925174076401587,1361362618.919721,18184,1160,-556,nan,0.000000
2,5,15,0,5983305,263447730,-2811925174076398966,1361362618.919721,16532,-4848,-3400,nan,0.000000
2,5,15,0,5983305,263447730,-2811925174076396345,1361362618.919721,14380,-2680,32,nan,0.000000
2,5,0,0,5983305,263447763,-2811925174076393724,1361362618.920678,16460,-3940,-1380,nan,0.000000
2,5,0,0,5983305,263447763,-2811925174076391103,1361362618.920678,15100,-2816,-1064,nan,0.000000
2,5,0,0,5983305,263447763,-2811925174076388482,1361362618.920678,14448,-2512,-132,nan,0.000000
2,5,0,0,5983305,263447763,-2811925174076385861,1361362618.920678,15052,-2480,404,nan,0.000000
2,5,0,0,5983305,263447763,-2811925174076383240,1361362618.920678,15316,-2256,648,nan,0.000000
2,5,1,0,5983305,263447795,-2811925174076380619,1361362618.921487,14528,-1848,1344,nan,0.000000
2,5,1,0,5983305,263447795,-2811925174076377998,1361362618.921487,16792,-4624,520,nan,0.000000
2,5,1,0,5983305,263447795,-2811925174076375377,1361362618.921487,18988,56,1916,nan,0.000000
2,5,1,0,5983305,263447795,-2811925174076372756,1361362618.921487,18864,-4456,-596,nan,0.000000
2,5,1,0,5983305,263447795,-2811925174076370135,1361362618.921487,12684,-2144,-1928,nan,0.000000
2,5,2,0,5983305,263447827,-2811925174076367514,1361362621.397484,17392,-4020,-3096,nan,0.000000
2,5,2,0,5983305,263447827,-2811925174076364893,1361362621.397484,14872,-1412,-348,nan,0.000000
2,5,2,0,5983305,263447827,-2811925174076362272,1361362621.397484,14240,-3260,-2152,nan,0.000000
2,5,2,0,5983305,263447827,-2811925174076359651,1361362621.397484,15568,-400,-844,nan,0.000000
2,5,2,0,5983305,263447827,-2811925174076357030,1361362621.397484,15544,-548,-716,nan,0.000000
1,5,3,0,6064621,263528956,-6557666593814681357,1361362621.398619,18484,-2476,-1008,nan,0.000000
1,5,3,0,6064621,263528956,-6557666593814678736,1361362621.398619,19000,-496,-1556,nan,0.000000
2,5,4,0,6064621,263528988,-6557666593814676115,1361362621.399166,13660,-4748,-2244,nan,0.000000
2,5,4,0,6064621,263528988,-6557666593814673494,1361362621.399166,17536,-3108,-464,nan,0.000000
2,5,4,0,6064621,263528988,-6557666593814670873,1361362621.399166,14836,-2932,-512,nan,0.000000
2,5,4,0,6064621,263528988,-6557666593814668252,1361362621.399166,13704,-1980,404,nan,0.000000
2,5,4,0,6064621,263528988,-6557666593814665631,1361362621.399166,14152,-2472,-128,nan,0.000000
2,5,5,0,6064621,263529049,-6557666593814663010,1361362621.401181,14804,-1824,1152,nan,0.000000
2,5,5,0,6064621,263529049,-6557666593814660389,1361362621.401181,15832,-4264,132,nan,0.000000
2,5,5,0,6064621,263529049,-6557666593814657768,1361362621.401181,19904,48,2660,nan,0.000000
2,5,5,0,6064621,263529049,-6557666593814655147,1361362621.401181,17996,-4832,-380,nan,0.000000
2,5,5,0,6064621,263529049,-6557666593814652526,1361362621.401181,13364,-1908,-1260,nan,0.000000
2,5,6,0,6064621,263529081,-6557666593814649905,1361362621.401947,17432,-3996,-3048,nan,0.000000
2,5,6,0,6064621,263529081,-6557666593814647284,1361362621.401947,15360,-1092,-304,nan,0.000000
2,5,6,0,6064621,263529081,-6557666593814644663,1361362621.401947,14524,-1444,-1088,nan,0.000000
2,5,6,0,6064621,263529081,-6557666593814642042,1361362621.401947,14640,-1476,-760,nan,0.000000
2,5,6,0,6064621,263529081,-6557666593814639421,1361362621.401947,15496,-1172,-1024,nan,0.000000
2,5,7,0,6064621,263529113,-6557666593814636800,1361362621.403078,15444,312,-372,nan,0.000000
2,5,7,0,6064621,263529113,-6557666593814634179,1361362621.403078,18004,-3644,-1000,nan,0.000000
2,5,7,0,6064621,263529113,-6557666593814631558,1361362621.403078,18760,-912,-1112,nan,0.000000
2,5,7,0,6064621,263529113,-6557666593814628937,1361362621.403078,13600,-4980,-2132,nan,0.000000
2,5,7,0,6064621,263529113,-6557666593814626316,1361362621.403078,17328,-4232,-1072,nan,0.000000
2,5,8,0,6064621,263529145,-6557666593814623695,1361362621.404071,15836,-3392,-532,nan,0.000000
2,5,8,0,6064621,263529145,-6557666593814621074,1361362621.404071,14016,-2224,212,nan,0.000000
2,5,8,0,6064621,263529145,-6557666593814618453,1361362621.404071,14464,-2708,560,nan,0.000000
2,5,8,0,6064621,263529145,-6557666593814615832,1361362621.404071,14496,-2052,1436,nan,0.000000
2,5,8,0,6064621,263529145,-6557666593814613211,1361362621.404071,14440,-3008,1468,nan,0.000000
2,5,9,0,6064621,263529177,-6557666593814610590,1361362623.879350,19012,-3840,1960,nan,0.000000
2,5,9,0,6064621,263529177,-6557666593814607969,1361362623.879350,19252,-1628,452,nan,0.000000
2,5,9,0,6064621,263529177,-6557666593814605348,1361362623.879350,14076,-3028,-1680,nan,0.000000
2,5,9,0,6064621,263529177,-6557666593814602727,1361362623.879350,16504,-4836,-2536,nan,0.000000
2,5,9,0,6064621,263529177,-6557666593814600106,1361362623.879350,15044,-2392,-404,nan,0.000000
1,5,10,0,6145936,263610274,-4322992777067780089,1361362623.881823,15024,-1120,-668,nan,0.000000
1,5,10,1,6145936,263610274,-4322992777067777468,1361362623.881823,15944,-2172,-760,nan,0.000000
2,5,11,1,6145936,263610306,-4322992777067774847,1361362623.882532,15976,-1768,-492,nan,0.000000
2,5,11,1,6145936,263610306,-4322992777067772226,1361362623.882532,16728,-3272,-808,nan,0.000000
2,5,11,1,6145936,263610306,-4322992777067769605,1361362623.882532,16740,-3600,-1216,nan,0.000000
2,5,11,1,6145936,263610306,-4322992777067766984,1361362623.882532,15572,-5280,-84,nan,0.000000
2,5,11,1,6145936,263610306,-4322992777067764363,1361362623.882532,17044,-3680,-652,nan,0.000000
2,5,12,1,6145936,263610338,-4322992777067761742,1361362623.883511,14304,-3556,1248,nan,0.000000
2,5,12,1,6145936,263610338,-4322992777067759121,1361362623.883511,14724,-3452,1108,nan,0.000000
2,5,12,1,6145936,263610338,-4322992777067756500,1361362623.883511,14948,-2868,1620,nan,0.000000
2,5,12,1,6145936,263610338,-4322992777067753879,1361362623.883511,14888,-1440,2860,nan,0.000000
2,5,12,1,6145936,263610338,-4322992777067751258,1361362623.883511,14968,-4552,464,nan,0.000000
2,5,13,1,6145936,263610370,-4322992777067748637,1361362623.884263,18712,136,3896,nan,0.000000
2,5,13,1,6145936,263610370,-4322992777067746016,1361362623.884263,18724,-7832,-300,nan,0.000000
2,5,13,1,6145936,263610370,-4322992777067743395,1361362623.884263,13032,-4140,-68,nan,0.000000
2,5,13,1,6145936,263610370,-4322992777067740774,1361362623.884263,16528,-4416,-2552,nan,0.000000
2,5,13,1,6145936,263610370,-4322992777067738153,1361362623.884263,15008,-3496,-1092,nan,0.000000
2,5,14,1,6145936,263610402,-4322992777067735532,1361362623.885078,15408,-2828,-2048,nan,0.000000
2,5,14,1,6145936,263610402,-4322992777067732911,1361362623.885078,15564,-1228,-744,nan,0.000000
2,5,14,1,6145936,263610402,-4322992777067730290,1361362623.885078,15944,-1424,-1020,nan,0.000000
2,5,14,1,6145936,263610402,-4322992777067727669,1361362623.885078,16112,-536,-360,nan,0.000000
2,5,14,1,6145936,263610402,-4322992777067725048,1361362623.885078,16024,-388,-100,nan,0.000000
2,5,15,1,6145936,263610434,-4322992777067722427,1361362623.885779,16160,-236,1240,nan,0.000000
2,5,15,1,6145936,263610434,-4322992777067719806,1361362623.885779,16256,-1684,2064,nan,0.000000
2,5,15,1,6145936,263610434,-4322992777067717185,1361362623.885779,17760,-4336,-1520,nan,0.000000
2,5,15,1,6145936,263610434,-4322992777067714564,1361362623.885779,16380,-4156,-408,nan,0.000000
2,5,15,1,6145936,263610434,-4322992777067711943,1361362623.885779,15280,-2920,16,nan,0.000000
2,5,0,1,6145936,263610466,-4322992777067709322,1361362626.361060,14800,-4116,104,nan,0.000000
2,5,0,1,6145936,263610466,-4322992777067706701,1361362626.361060,14628,-3932,508,nan,0.000000
2,5,0,1,6145936,263610466,-4322992777067704080,1361362626.361060,14840,-4148,952,nan,0.000000
2,5,0,1,6145936,263610466,-4322992777067701459,1361362626.361060,14752,-3184,1736,nan,0.000000
2,5,0,1,6145936,263610466,-4322992777067698838,1361362626.361060,14644,-2808,1996,nan,0.000000
1,5,1,0,6227253,263691596,-287767549868152832,1361362626.361978,17804,-896,3444,nan,0.000000
1,5,1,0,6227253,263691596,-287767549868150211,1361362626.361978,18600,-6720,-1052,nan,0.000000
2,5,2,0,6227253,263691627,-287767549868147590,1361362626.362962,13964,-2180,-1536,nan,0.000000
2,5,2,0,6227253,263691627,-287767549868144969,1361362626.362962,15852,-4080,-3464,nan,0.000000
2,5,2,0,6227253,263691627,-287767549868142348,1361362626.362962,16024,-2652,-1960,nan,0.000000
2,5,2,0,6227253,263691627,-287767549868139727,1361362626.362962,14836,-1692,-1836,nan,0.000000
2,5,2,0,6227253,263691627,-287767549868137106,1361362626.362962,15328,-236,-1668,nan,0.000000
2,5,3,0,6227253,263691660,-287767549868134485,1361362626.363842,16156,-688,-1004,nan,0.000000
2,5,3,0,6227253,263691660,-287767549868131864,1361362626.363842,16172,-328,-928,nan,0.000000
2,5,3,0,6227253,263691660,-287767549868129243,1361362626.363842,16076,-460,-368,nan,0.000000
2,5,3,0,6227253,263691660,-287767549868126622,1361362626.363842,15896,-1268,660,nan,0.000000
2,5,3,0,6227253,263691660,-287767549868124001,1361362626.363842,18864,-648,460,nan,0.000000
2,5,4,0,6227253,263691691,-287767549868121380,1361362626.365107,18208,-3148,-2392,nan,0.000000
2,5,4,0,6227253,263691691,-287767549868118759,1361362626.365107,12188,-4012,-1420,nan,0.000000
2,5,4,0,6227253,263691691,-287767549868116138,1361362626.365107,16688,-3072,20,nan,0.000000
2,5,4,0,6227253,263691691,-287767549868113517,1361362626.365107,15868,-2556,-488,nan,0.000000
2,5,4,0,6227253,263691691,-287767549868110896,1361362626.365107,14524,-2548,184,nan,0.000000
2,5,5,0,6227253,263691724,-287767549868108275,1361362626.366127,14920,-3220,172,nan,0.000000
2,5,5,0,6227253,263691724,-287767549868105654,1361362626.366127,14844,-2552,784,nan,0.000000
2,5,5,0,6227253,263691724,-287767549868103033,1361362626.366127,14972,-2260,904,nan,0.000000
2,5,5,0,6227253,263691724,-287767549868100412,1361362626.366127,15360,-3136,356,nan,0.000000
2,5,5,0,6227253,263691724,-287767549868097791,1361362626.366127,17232,-1276,2000,nan,0.000000
2,5,6,0,6227253,263691755,-287767549868095170,1361362626.366939,21108,-4492,-3008,nan,0.000000
2,5,6,0,6227253,263691755,-287767549868092549,1361362626.366939,13404,-1900,-1652,nan,0.000000
2,5,6,0,6227253,263691755,-287767549868089928,1361362626.366939,15728,-5864,-4900,nan,0.000000
2,5,6,0,6227253,263691755,-287767549868087307,1361362626.366939,15588,-3092,-1868,nan,0.000000
2,5,6,0,6227253,263691755,-287767549868084686,1361362626.366939,14384,-1660,-2260,nan,0.000000
2,5,7,0,6227253,263691788,-287767549868082065,1361362628.855191,15304,-1116,-1820,nan,0.000000
2,5,7,0,6227253,263691788,-287767549868079444,1361362628.855191,15412,-1352,-1872,nan,0.000000
2,5,7,0,6227253,263691788,-287767549868076823,1361362628.855191,15808,-188,-828,nan,0.000000
2,5,7,0,6227253,263691788,-287767549868074202,1361362628.855191,16000,-1492,-1400,nan,0.000000
2,5,7,0,6227253,263691788,-287767549868071581,1361362628.855191,16848,-556,84,nan,0.000000
1,5,8,0,6308569,263773350,-5694598344052251400,1361362628.856991,19128,-896,-1256,nan,0.000000
1,5,8,0,6308569,263773350,-5694598344052248779,1361362628.856991,14548,-4684,-3108,nan,0.000000
2,5,9,0,6308569,263773382,-5694598344052246158,1361362628.857394,15624,-4108,-472,nan,0.000000
2,5,9,0,6308569,263773382,-5694598344052243537,1361362628.857394,15124,-3288,-892,nan,0.000000
2,5,9,0,6308569,263773382,-5694598344052240916,1361362628.857394,14560,-3160,-328,nan,0.000000
2,5,9,0,6308569,263773382,-5694598344052238295,1361362628.857394,15232,-3332,-128,nan,0.000000
2,5,9,0,6308569,263773382,-5694598344052235674,1361362628.857394,14832,-2980,488,nan,0.000000
2,5,10,0,6308569,263773414,-5694598344052233053,1361362628.858879,15144,-2392,1260,nan,0.000000
2,5,10,0,6308569,263773414,-5694598344052230432,1361362628.858879,15264,-3764,576,nan,0.000000
2,5,10,0,6308569,263773414,-5694598344052227811,1361362628.858879,16648,-2992,968,nan,0.000000
2,5,10,0,6308569,263773414,-5694598344052225190,1361362628.858879,17044,4,2360,nan,0.000000
2,5,10,0,6308569,263773414,-5694598344052222569,1361362628.858879,18952,-4916,-1640,nan,0.000000
2,5,11,0,6308569,263773446,-5694598344052219948,1361362628.859859,14572,-2092,-2268,nan,0.000000
2,5,11,0,6308569,263773446,-5694598344052217327,1361362628.859859,15216,-3728,-3348,nan,0.000000
2,5,11,0,6308569,263773446,-5694598344052214706,1361362628.859859,15928,-2536,-1100,nan,0.000000
2,5,11,0,6308569,263773446,-5694598344052212085,1361362628.859859,14916,-1832,-1324,nan,0.000000
2,5,11,0,6308569,263773446,-5694598344052209464,1361362628.859859,15132,-1016,-732,nan,0.000000
2,5,12,0,6308569,263773478,-5694598344052206843,1361362628.861035,15680,-1360,-1300,nan,0.000000
2,5,12,0,6308569,263773478,-5694598344052204222,1361362628.861035,15776,-1112,-452,nan,0.000000
2,5,12,0,6308569,263773478,-5694598344052201601,1361362628.861035,15884,-1768,-824,nan,0.000000
2,5,12,0,6308569,263773478,-5694598344052198980,1361362628.861035,16872,-772,860,nan,0.000000
2,5,12,0,6308569,263773478,-5694598344052196359,1361362628.861035,18996,-1988,-364,nan,0.000000
2,5,13,0,6308569,263773510,-5694598344052193738,1361362628.861824,15368,-3976,-3500,nan,0.000000
2,5,13,0,6308569,263773510,-5694598344052191117,1361362628.861824,15756,-3152,-1244,nan,0.000000
2,5,13,0,6308569,263773510,-5694598344052188496,1361362628.861824,15656,-2512,-1208,nan,0.000000
2,5,13,0,6308569,263773510,-5694598344052185875,1361362628.861824,14472,-2132,-84,nan,0.000000
2,5,13,0,6308569,263773510,-5694598344052183254,1361362628.861824,15036,-2860,-224,nan,0.000000
2,5,14,0,6308569,263773542,-5694598344052180633,1361362631.325188,14780,-2420,1196,nan,0.000000
2,5,14,0,6308569,263773542,-5694598344052178012,1361362631.325188,14908,-2040,1208,nan,0.000000
2,5,14,0,6308569,263773542,-5694598344052175391,1361362631.325188,15556,-4560,108,nan,0.000000
2,5,14,0,6308569,263773542,-5694598344052172770,1361362631.325188,18216,-1340,2488,nan,0.000000
2,5,14,0,6308569,263773542,-5694598344052170149,1361362631.325188,18088,-4788,-1508,nan,0.000000
1,5,15,0,6389885,263854234,-5187011008568579068,1361362631.331199,17208,-3364,-2240,nan,0.000000
1,5,15,0,6389885,263854234,-5187011008568576447,1361362631.331199,13900,-1684,-1824,nan,0.000000
2,5,0,0,6389885,263854451,-5187011008568573826,1361362631.335184,14992,-1036,-1352,nan,0.000000
2,5,0,0,6389885,263854451,-5187011008568571205,1361362631.335184,15444,-548,-1020,nan,0.000000
2,5,0,0,6389885,263854451,-5187011008568568584,1361362631.335184,15816,-1496,-1088,nan,0.000000
2,5,0,0,6389885,263854451,-5187011008568565963,1361362631.335184,15476,-736,-712,nan,0.000000
2,5,0,0,6389885,263854451,-5187011008568563342,1361362631.335184,17772,-3100,108,nan,0.000000
2,5,1,0,6389885,263854577,-5187011008568560721,1361362631.335967,19320,-936,-1436,nan,0.000000
2,5,1,0,6389885,263854577,-5187011008568558100,1361362631.335967,13800,-3932,-2416,nan,0.000000
2,5,1,0,6389885,263854577,-5187011008568555479,1361362631.335967,16032,-3944,-436,nan,0.000000
2,5,1,0,6389885,263854577,-5187011008568552858,1361362631.335967,15708,-3512,-484,nan,0.000000
2,5,1,0,6389885,263854577,-5187011008568550237,1361362631.335967,14716,-2612,196,nan,0.000000
2,5,2,0,6389885,263854609,-5187011008568547616,1361362631.337031,14848,-2916,1036,nan,0.000000
2,5,2,0,6389885,263854609,-5187011008568544995,1361362631.337031,14744,-2308,1868,nan,0.000000
2,5,2,0,6389885,263854609,-5187011008568542374,1361362631.337031,14560,-3068,1368,nan,0.000000
2,5,2,0,6389885,263854609,-5187011008568539753,1361362631.337031,17108,-4064,1196,nan,0.000000
2,5,2,0,6389885,263854609,-5187011008568537132,1361362631.337031,17908,360,3228,nan,0.000000
2,5,3,0,6389885,263854641,-5187011008568534511,1361362631.337650,19024,-6000,-1140,nan,0.000000
2,5,3,0,6389885,263854641,-5187011008568531890,1361362631.337650,12752,-1332,-1756,nan,0.000000
2,5,3,0,6389885,263854641,-5187011008568529269,1361362631.337650,16372,-4632,-2404,nan,0.000000
2,5,3,0,6389885,263854641,-5187011008568526648,1361362631.337650,15068,-2212,-1368,nan,0.000000
2,5,3,0,6389885,263854641,-5187011008568524027,1361362631.337650,14912,-1864,-888,nan,0.000000
2,5,4,0,6389885,263854673,-5187011008568521406,1361362631.339065,15476,-1488,-828,nan,0.000000
2,5,4,0,6389885,263854673,-5187011008568518785,1361362631.339065,15556,-1524,-200,nan,0.000000
2,5,4,0,6389885,263854673,-5187011008568516164,1361362631.339065,16024,-980,-312,nan,0.000000
2,5,4,0,6389885,263854673,-5187011008568513543,1361362631.339065,16888,-1788,512,nan,0.000000
2,5,4,0,6389885,263854673,-5187011008568510922,1361362631.339065,19224,-1296,-472,nan,0.000000
2,5,5,0,6389885,263854705,-5187011008568508301,1361362633.805159,15612,-3700,-3128,nan,0.000000
2,5,5,0,6389885,263854705,-5187011008568505680,1361362633.805159,13428,-4208,-256,nan,0.000000
2,5,5,0,6389885,263854705,-5187011008568503059,1361362633.805159,17020,-3748,-1384,nan,0.000000
2,5,5,0,6389885,263854705,-5187011008568500438,1361362633.805159,14652,-3580,-360,nan,0.000000
2,5,5,0,6389885,263854705,-5187011008568497817,1361362633.805159,14620,-2324,404,nan,0.000000
1,5,6,0,6471200,263935554,71935477182417139,1361362633.806850,15072,-1688,964,nan,0.000000
1,5,6,1,6471200,263935554,71935477182419760,1361362633.806850,14868,-6264,-1216,nan,0.000000
2,5,7,1,6471200,263935586,71935477182422381,1361362633.807518,19720,2160,2584,nan,0.000000
2,5,7,1,6471200,263935586,71935477182425002,1361362633.807518,19048,-7512,-2596,nan,0.000000
2,5,7,1,6471200,263935586,71935477182427623,1361362633.807518,12228,-1808,-1352,nan,0.000000
2,5,7,1,6471200,263935586,71935477182430244,1361362633.807518,16548,-4348,-3788,nan,0.000000
2,5,7,1,6471200,263935586,71935477182432865,1361362633.807518,15636,-1596,-1456,nan,0.000000
2,5,8,1,6471200,263935618,71935477182435486,1361362633.808812,14316,-2200,-1752,nan,0.000000
2,5,8,1,6471200,263935618,71935477182438107,1361362633.808812,15364,-864,-1132,nan,0.000000
2,5,8,1,6471200,263935618,71935477182440728,1361362633.808812,15696,-1084,-1200,nan,0.000000
2,5,8,1,6471200,263935618,71935477182443349,1361362633.808812,15344,-380,-760,nan,0.000000
2,5,8,1,6471200,263935618,71935477182445970,1361362633.808812,16656,-4004,-1940,nan,0.000000
2,5,9,1,6471200,263935650,71935477182448591,1361362633.809752,17612,444,484,nan,0.000000
2,5,9,1,6471200,263935650,71935477182451212,1361362633.809752,19068,-3000,-1904,nan,0.000000
2,5,9,1,6471200,263935650,71935477182453833,1361362633.809752,13460,-4980,-2332,nan,0.000000
2,5,9,1,6471200,263935650,71935477182456454,1361362633.809752,15288,-4192,-208,nan,0.000000
2,5,9,1,6471200,263935650,71935477182459075,1361362633.809752,15864,-4852,-1428,nan,0.000000
2,5,10,1,6471200,263935682,71935477182461696,1361362633.810803,14336,-4280,-296,nan,0.000000
2,5,10,1,6471200,263935682,71935477182464317,1361362633.810803,14624,-4084,368,nan,0.000000
2,5,10,1,6471200,263935682,71935477182466938,1361362633.810803,14980,-3840,844,nan,0.000000
2,5,10,1,6471200,263935682,71935477182469559,1361362633.810803,14484,-3516,708,nan,0.000000
2,5,10,1,6471200,263935682,71935477182472180,1361362633.810803,16120,-3228,100,nan,0.000000
2,5,11,1,6471200,263935714,71935477182474801,1361362633.811846,18356,-1216,1244,nan,0.000000
2,5,11,1,6471200,263935714,71935477182477422,1361362633.811846,17944,-6020,-1448,nan,0.000000
2,5,11,1,6471200,263935714,71935477182480043,1361362633.811846,13256,-2900,-516,nan,0.000000
2,5,11,1,6471200,263935714,71935477182482664,1361362633.811846,15744,-3524,-3676,nan,0.000000
2,5,11,1,6471200,263935714,71935477182485285,1361362633.811846,16600,-3000,-1404,nan,0.000000
2,5,12,1,6471200,263935746,71935477182487906,1361362636.287104,14460,-2388,-2160,nan,0.000000
2,5,12,1,6471200,263935746,71935477182490527,1361362636.287104,15940,-968,-1532,nan,0.000000
2,5,12,1,6471200,263935746,71935477182493148,1361362636.287104,16160,-1956,-2044,nan,0.000000
2,5,12,1,6471200,263935746,71935477182495769,1361362636.287104,15696,-2072,-2620,nan,0.000000
2,5,12,1,6471200,263935746,71935477182498390,1361362636.287104,15728,-620,-2356,nan,0.000000
1,5,13,0,6552516,264016873,358661776457240823,1361362636.288751,18040,-1276,-2016,nan,0.000000
1,5,13,0,6552516,264016873,358661776457243444,1361362636.288751,15924,-3060,-2960,nan,0.000000
2,5,14,0,6552516,264016905,358661776457246065,1361362636.289430,15644,-2912,-1212,nan,0.000000
2,5,14,0,6552516,264016905,358661776457248686,1361362636.289430,15988,-4088,-696,nan,0.000000
2,5,14,0,6552516,264016905,358661776457251307,1361362636.289430,14316,-4388,-1024,nan,0.000000
2,5,14,0,6552516,264016905,358661776457253928,1361362636.289430,15296,-3496,-176,nan,0.000000
2,5,14,0,6552516,264016905,358661776457256549,1361362636.289430,15044,-3012,656,nan,0.000000
2,5,15,0,6552516,264016937,358661776457259170,1361362636.290906,14796,-3316,1308,nan,0.000000
2,5,15,0,6552516,264016937,358661776457261791,1361362636.290906,15020,-1716,712,nan,0.000000
2,5,15,0,6552516,264016937,358661776457264412,1361362636.290906,18128,-2112,1056,nan,0.000000
2,5,15,0,6552516,264016937,358661776457267033,1361362636.290906,18216,-5108,-268,nan,0.000000
2,5,15,0,6552516,264016937,358661776457269654,1361362636.290906,13872,-3692,-1192,nan,0.000000
2,5,0,0,6552516,264016969,358661776457272275,1361362636.291870,16872,-2560,-948,nan,0.000000
2,5,0,0,6552516,264016969,358661776457274896,1361362636.291870,14400,-3812,-1532,nan,0.000000
2,5,0,0,6552516,264016969,358661776457277517,1361362636.291870,15704,-1784,-1056,nan,0.000000
2,5,0,0,6552516,264016969,358661776457280138,1361362636.291870,15876,-1116,-684,nan,0.000000
2,5,0,0,6552516,264016969,358661776457282759,1361362636.291870,15824,-780,-68,nan,0.000000
2,5,1,0,6552516,264017001,358661776457285380,1361362636.292748,15772,-1324,-932,nan,0.000000
2,5,1,0,6552516,264017001,358661776457288001,1361362636.292748,15984,-1092,-276,nan,0.000000
2,5,1,0,6552516,264017001,358661776457290622,1361362636.292748,17252,-492,960,nan,0.000000
2,5,1,0,6552516,264017001,358661776457293243,1361362636.292748,18392,-6316,-3188,nan,0.000000
2,5,1,0,6552516,264017001,358661776457295864,1361362636.292748,14380,-952,-1432,nan,0.000000
2,5,2,0,6552516,264017033,358661776457298485,1361362636.293441,16268,-3896,-704,nan,0.000000
2,5,2,0,6552516,264017033,358661776457301106,1361362636.293441,14940,-2160,-720,nan,0.000000
