type,ID,seq,packetLoss,nodeTimestamp,bsTimestamp,syncTimestamp,systemTime,accelX,accelY,accelZ,cannula,voltage
1,5,8,0,5171145,273607029,4909306335552603171,1360513644.290429,11788,7588,8400,nan,0.000000
1,5,8,0,5171145,273607029,4909306335552605792,1360513644.290429,11856,7888,8336,nan,0.000000
2,5,9,0,5171145,273607060,4909306335552608413,1360513644.290621,11820,7840,8156,nan,0.000000
2,5,9,0,5171145,273607060,4909306335552611034,1360513644.290621,11824,7832,8240,nan,0.000000
2,5,9,0,5171145,273607060,4909306335552613655,1360513644.290621,11956,8040,8272,nan,0.000000
2,5,9,0,5171145,273607060,4909306335552616276,1360513644.290621,11592,7888,8160,nan,0.000000
2,5,9,0,5171145,273607060,4909306335552618897,1360513644.290621,11776,7880,8332,nan,0.000000
2,5,10,0,5171145,273607092,4909306335552621518,1360513644.290843,11848,8012,8172,nan,0.000000
2,5,10,0,5171145,273607092,4909306335552624139,1360513644.290843,11820,8132,8116,nan,0.000000
2,5,10,0,5171145,273607092,4909306335552626760,1360513644.290843,11868,8052,8016,nan,0.000000
2,5,10,0,5171145,273607092,4909306335552629381,1360513644.290843,11856,7816,8160,nan,0.000000
2,5,10,0,5171145,273607092,4909306335552632002,1360513644.290843,11984,8128,8220,nan,0.000000
2,5,11,0,5171145,273607124,4909306335552634623,1360513644.291053,11828,8032,8024,nan,0.000000
2,5,11,0,5171145,273607124,4909306335552637244,1360513644.291053,11860,8000,8004,nan,0.000000
2,5,11,0,5171145,273607124,4909306335552639865,1360513644.291053,12072,7832,8096,nan,0.000000
2,5,11,0,5171145,273607124,4909306335552642486,1360513644.291053,11952,8028,8024,nan,0.000000
2,5,11,0,5171145,273607124,4909306335552645107,1360513644.291053,11764,8084,7628,nan,0.000000
2,5,12,0,5171145,273607155,4909306335552647728,1360513644.291307,11924,8264,8000,nan,0.000000
2,5,12,0,5171145,273607155,4909306335552650349,1360513644.291307,12068,8220,7924,nan,0.000000
2,5,12,0,5171145,273607155,4909306335552652970,1360513644.291307,11980,7952,7912,nan,0.000000
2,5,12,0,5171145,273607155,4909306335552655591,1360513644.291307,11988,7968,7768,nan,0.000000
2,5,12,0,5171145,273607155,4909306335552658212,1360513644.291307,12056,7880,7744,nan,0.000000
2,5,13,0,5171145,273607187,4909306335552660833,1360513644.291547,12180,7884,7688,nan,0.000000
2,5,13,0,5171145,273607187,4909306335552663454,1360513644.291547,12376,7960,7676,nan,0.000000
2,5,13,0,5171145,273607187,4909306335552666075,1360513644.291547,12208,7928,7920,nan,0.000000
2,5,13,0,5171145,273607187,4909306335552668696,1360513644.291547,12212,8040,7736,nan,0.000000
2,5,13,0,5171145,273607187,4909306335552671317,1360513644.291547,12276,7580,7324,nan,0.000000
2,5,14,0,5171145,273607219,4909306335552673938,1360513644.291784,12480,7956,7732,nan,0.000000
2,5,14,0,5171145,273607219,4909306335552676559,1360513644.291784,12200,7884,7324,nan,0.000000
2,5,14,0,5171145,273607219,4909306335552679180,1360513644.291784,12368,7732,7404,nan,0.000000
2,5,14,0,5171145,273607219,4909306335552681801,1360513644.291784,12392,7156,8080,nan,0.000000
2,5,14,0,5171145,273607219,4909306335552684422,1360513644.291784,12012,7788,8744,nan,0.000000
1,5,15,0,5252408,273688296,-7197653672402144226,1360513644.292019,11612,7356,8620,nan,0.000000
1,5,15,0,5252408,273688296,-7197653672402141605,1360513644.292019,11988,7352,8380,nan,0.000000
2,5,0,0,5252408,273688328,-7197653672402138984,1360513644.292132,11960,7548,8424,nan,0.000000
2,5,0,0,5252408,273688328,-7197653672402136363,1360513644.292132,11688,7792,8396,nan,0.000000
2,5,0,0,5252408,273688328,-7197653672402133742,1360513644.292132,11796,7664,8596,nan,0.000000
2,5,0,0,5252408,273688328,-7197653672402131121,1360513644.292132,11628,7644,8716,nan,0.000000
2,5,0,0,5252408,273688328,-7197653672402128500,1360513644.292132,11652,7940,8356,nan,0.000000
2,5,1,0,5252408,273688360,-7197653672402125879,1360513644.292366,11652,7752,8552,nan,0.000000
2,5,1,0,5252408,273688360,-7197653672402123258,1360513644.292366,11652,7836,8708,nan,0.000000
2,5,1,0,5252408,273688360,-7197653672402120637,1360513644.292366,11744,7992,8604,nan,0.000000
2,5,1,0,5252408,273688360,-7197653672402118016,1360513644.292366,11768,7884,8212,nan,0.000000
2,5,1,0,5252408,273688360,-7197653672402115395,1360513644.292366,11672,7360,8108,nan,0.000000
2,5,2,0,5252408,273688391,-7197653672402112774,1360513644.292644,12568,7500,8032,nan,0.000000
2,5,2,0,5252408,273688391,-7197653672402110153,1360513644.292644,12728,7724,7712,nan,0.000000
2,5,2,0,5252408,273688391,-7197653672402107532,1360513644.292644,12764,8224,7408,nan,0.000000
2,5,2,0,5252408,273688391,-7197653672402104911,1360513644.292644,12656,7972,7012,nan,0.000000
2,5,2,0,5252408,273688391,-7197653672402102290,1360513644.292644,12984,6880,6600,nan,0.000000
2,5,3,0,5252408,273688423,-7197653672402099669,1360513644.292881,13216,6448,6280,nan,0.000000
2,5,3,0,5252408,273688423,-7197653672402097048,1360513644.292881,13508,6932,6052,nan,0.000000
2,5,3,0,5252408,273688423,-7197653672402094427,1360513644.292881,13844,6544,7076,nan,0.000000
2,5,3,0,5252408,273688423,-7197653672402091806,1360513644.292881,13244,6088,6948,nan,0.000000
2,5,3,0,5252408,273688423,-7197653672402089185,1360513644.292881,13700,6068,7120,nan,0.000000
2,5,4,0,5252408,273688455,-7197653672402086564,1360513644.293114,12984,5864,7576,nan,0.000000
2,5,4,0,5252408,273688455,-7197653672402083943,1360513644.293114,12892,4764,6408,nan,0.000000
2,5,4,0,5252408,273688455,-7197653672402081322,1360513644.293114,13288,5504,8516,nan,0.000000
2,5,4,0,5252408,273688455,-7197653672402078701,1360513644.293114,12764,4868,7096,nan,0.000000
2,5,4,0,5252408,273688455,-7197653672402076080,1360513644.293114,12760,6616,8780,nan,0.000000
2,5,5,0,5252408,273688486,-7197653672402073459,1360513646.453790,13204,7820,7944,nan,0.000000
2,5,5,0,5252408,273688486,-7197653672402070838,1360513646.453790,12576,7256,7528,nan,0.000000
2,5,5,0,5252408,273688486,-7197653672402068217,1360513646.453790,13204,7352,7988,nan,0.000000
2,5,5,0,5252408,273688486,-7197653672402065596,1360513646.453790,11256,7036,7828,nan,0.000000
2,5,5,0,5252408,273688486,-7197653672402062975,1360513646.453790,12672,7944,8956,nan,0.000000
1,5,6,0,5333674,273769564,7502249432091527199,1360513646.455606,11224,5608,10300,nan,0.000000
1,5,6,0,5333674,273769564,7502249432091529820,1360513646.455606,10624,6044,9728,nan,0.000000
2,5,7,0,5333674,273769596,7502249432091532441,1360513646.456007,13680,9172,8872,nan,0.000000
2,5,7,0,5333674,273769596,7502249432091535062,1360513646.456007,11888,7888,7480,nan,0.000000
2,5,7,0,5333674,273769596,7502249432091537683,1360513646.456007,12380,7356,7644,nan,0.000000
2,5,7,0,5333674,273769596,7502249432091540304,1360513646.456007,12348,7368,7624,nan,0.000000
2,5,7,0,5333674,273769596,7502249432091542925,1360513646.456007,12336,7324,7996,nan,0.000000
2,5,8,0,5333674,273769628,7502249432091545546,1360513646.457572,12060,7328,8128,nan,0.000000
2,5,8,0,5333674,273769628,7502249432091548167,1360513646.457572,12048,7136,8368,nan,0.000000
2,5,8,0,5333674,273769628,7502249432091550788,1360513646.457572,11920,6816,8340,nan,0.000000
2,5,8,0,5333674,273769628,7502249432091553409,1360513646.457572,12428,7204,8012,nan,0.000000
2,5,8,0,5333674,273769628,7502249432091556030,1360513646.457572,12040,5652,4612,nan,0.000000
2,5,9,0,5333674,273769660,7502249432091558651,1360513646.458277,12540,8124,13332,nan,0.000000
2,5,9,0,5333674,273769660,7502249432091561272,1360513646.458277,12276,6572,7328,nan,0.000000
2,5,9,0,5333674,273769660,7502249432091563893,1360513646.458277,13208,7084,7080,nan,0.000000
2,5,9,0,5333674,273769660,7502249432091566514,1360513646.458277,12776,7372,7008,nan,0.000000
2,5,9,0,5333674,273769660,7502249432091569135,1360513646.458277,12720,6780,7288,nan,0.000000
2,5,10,0,5333674,273769692,7502249432091571756,1360513646.459515,12504,7244,7500,nan,0.000000
2,5,10,0,5333674,273769692,7502249432091574377,1360513646.459515,12420,6936,7824,nan,0.000000
2,5,10,0,5333674,273769692,7502249432091576998,1360513646.459515,12356,7804,8824,nan,0.000000
2,5,10,0,5333674,273769692,7502249432091579619,1360513646.459515,11748,7484,8532,nan,0.000000
2,5,10,0,5333674,273769692,7502249432091582240,1360513646.459515,11788,7716,9004,nan,0.000000
2,5,11,0,5333674,273769724,7502249432091584861,1360513646.460107,11520,7624,8920,nan,0.000000
2,5,11,0,5333674,273769724,7502249432091587482,1360513646.460107,11548,7816,8740,nan,0.000000
2,5,11,0,5333674,273769724,7502249432091590103,1360513646.460107,11504,7652,8904,nan,0.000000
2,5,11,0,5333674,273769724,7502249432091592724,1360513646.460107,11556,7508,8980,nan,0.000000
2,5,11,0,5333674,273769724,7502249432091595345,1360513646.460107,11516,7612,8812,nan,0.000000
2,5,12,0,5333674,273769756,7502249432091597966,1360513648.935849,11568,7696,8848,nan,0.000000
2,5,12,0,5333674,273769756,7502249432091600587,1360513648.935849,11508,7548,8864,nan,0.000000
2,5,12,0,5333674,273769756,7502249432091603208,1360513648.935849,11676,7672,8912,nan,0.000000
2,5,12,0,5333674,273769756,7502249432091605829,1360513648.935849,11664,7532,8688,nan,0.000000
2,5,12,0,5333674,273769756,7502249432091608450,1360513648.935849,11564,7536,8716,nan,0.000000
1,5,13,0,5414939,273850834,-6907822410340462558,1360513648.936732,11596,7556,8888,nan,0.000000
1,5,13,0,5414939,273850834,-6907822410340459937,1360513648.936732,11532,7724,8756,nan,0.000000
2,5,14,0,5414939,273850866,-6907822410340457316,1360513648.937532,11552,7708,8916,nan,0.000000
2,5,14,0,5414939,273850866,-6907822410340454695,1360513648.937532,11560,7568,8884,nan,0.000000
2,5,14,0,5414939,273850866,-6907822410340452074,1360513648.937532,11512,7796,8888,nan,0.000000
2,5,14,0,5414939,273850866,-6907822410340449453,1360513648.937532,11492,7688,8820,nan,0.000000
2,5,14,0,5414939,273850866,-6907822410340446832,1360513648.937532,11500,7724,8872,nan,0.000000
2,5,15,0,5414939,273850898,-6907822410340444211,1360513648.938188,11456,7724,8888,nan,0.000000
2,5,15,0,5414939,273850898,-6907822410340441590,1360513648.938188,11448,7848,9000,nan,0.000000
2,5,15,0,5414939,273850898,-6907822410340438969,1360513648.938188,11492,7704,8912,nan,0.000000
2,5,15,0,5414939,273850898,-6907822410340436348,1360513648.938188,11440,7708,8884,nan,0.000000
2,5,15,0,5414939,273850898,-6907822410340433727,1360513648.938188,11512,7676,8768,nan,0.000000
2,5,0,0,5414939,273850930,-6907822410340431106,1360513648.939464,11548,7712,8860,nan,0.000000
2,5,0,0,5414939,273850930,-6907822410340428485,1360513648.939464,11516,7736,8864,nan,0.000000
2,5,0,0,5414939,273850930,-6907822410340425864,1360513648.939464,11460,7728,8836,nan,0.000000
2,5,0,0,5414939,273850930,-6907822410340423243,1360513648.939464,11436,7776,8892,nan,0.000000
2,5,0,0,5414939,273850930,-6907822410340420622,1360513648.939464,11548,7788,8780,nan,0.000000
2,5,1,0,5414939,273850962,-6907822410340418001,1360513648.940082,11512,7700,8784,nan,0.000000
2,5,1,0,5414939,273850962,-6907822410340415380,1360513648.940082,11500,7736,8784,nan,0.000000
2,5,1,0,5414939,273850962,-6907822410340412759,1360513648.940082,11552,7836,8740,nan,0.000000
2,5,1,0,5414939,273850962,-6907822410340410138,1360513648.940082,11524,7820,8752,nan,0.000000
2,5,1,0,5414939,273850962,-6907822410340407517,1360513648.940082,11532,7860,8724,nan,0.000000
2,5,2,0,5414939,273850994,-6907822410340404896,1360513648.941515,11464,7824,8680,nan,0.000000
2,5,2,0,5414939,273850994,-6907822410340402275,1360513648.941515,11488,7832,8796,nan,0.000000
2,5,2,0,5414939,273850994,-6907822410340399654,1360513648.941515,11488,7896,8700,nan,0.000000
2,5,2,0,5414939,273850994,-6907822410340397033,1360513648.941515,11568,7916,8812,nan,0.000000
2,5,2,0,5414939,273850994,-6907822410340394412,1360513648.941515,11384,7828,8744,nan,0.000000
2,5,3,0,5414939,273851025,-6907822410340391791,1360513651.415569,11464,7888,8640,nan,0.000000
2,5,3,0,5414939,273851025,-6907822410340389170,1360513651.415569,11468,7676,8944,nan,0.000000
2,5,3,0,5414939,273851025,-6907822410340386549,1360513651.415569,11484,7616,8856,nan,0.000000
2,5,3,0,5414939,273851025,-6907822410340383928,1360513651.415569,11580,7860,8776,nan,0.000000
2,5,3,0,5414939,273851025,-6907822410340381307,1360513651.415569,11480,7724,8852,nan,0.000000
1,5,4,0,5496203,273932103,-1143074150488948703,1360513651.416647,11508,7824,8856,nan,0.000000
1,5,4,0,5496203,273932103,-1143074150488946082,1360513651.416647,11564,7652,8812,nan,0.000000
2,5,5,0,5496203,273932135,-1143074150488943461,1360513651.418942,11544,7784,8792,nan,0.000000
2,5,5,0,5496203,273932135,-1143074150488940840,1360513651.418942,11564,7648,8764,nan,0.000000
2,5,5,0,5496203,273932135,-1143074150488938219,1360513651.418942,11560,7680,8828,nan,0.000000
2,5,5,0,5496203,273932135,-1143074150488935598,1360513651.418942,11496,7728,8764,nan,0.000000
2,5,5,0,5496203,273932135,-1143074150488932977,1360513651.418942,11544,7716,8772,nan,0.000000
2,5,6,0,5496203,273932167,-1143074150488930356,1360513651.419831,11500,7768,8792,nan,0.000000
2,5,6,0,5496203,273932167,-1143074150488927735,1360513651.419831,11580,7756,8728,nan,0.000000
2,5,6,0,5496203,273932167,-1143074150488925114,1360513651.419831,11556,7772,8712,nan,0.000000
2,5,6,0,5496203,273932167,-1143074150488922493,1360513651.419831,11524,7752,8784,nan,0.000000
2,5,6,0,5496203,273932167,-1143074150488919872,1360513651.419831,11496,7772,8656,nan,0.000000
2,5,7,0,5496203,273932199,-1143074150488917251,1360513651.420626,11500,7788,8800,nan,0.000000
2,5,7,0,5496203,273932199,-1143074150488914630,1360513651.420626,11476,7832,8700,nan,0.000000
2,5,7,0,5496203,273932199,-1143074150488912009,1360513651.420626,11500,7844,8808,nan,0.000000
2,5,7,0,5496203,273932199,-1143074150488909388,1360513651.420626,11484,7868,8796,nan,0.000000
2,5,7,0,5496203,273932199,-1143074150488906767,1360513651.420626,11456,7900,8832,nan,0.000000
2,5,8,0,5496203,273932231,-1143074150488904146,1360513651.421516,11484,7808,8656,nan,0.000000
2,5,8,0,5496203,273932231,-1143074150488901525,1360513651.421516,11596,7800,8748,nan,0.000000
2,5,8,0,5496203,273932231,-1143074150488898904,1360513651.421516,11596,7836,8760,nan,0.000000
2,5,8,0,5496203,273932231,-1143074150488896283,1360513651.421516,11564,7816,8608,nan,0.000000
2,5,8,0,5496203,273932231,-1143074150488893662,1360513651.421516,11508,7864,8684,nan,0.000000
2,5,9,0,5496203,273932263,-1143074150488891041,1360513651.422176,11544,7820,8724,nan,0.000000
2,5,9,0,5496203,273932263,-1143074150488888420,1360513651.422176,11524,7908,8712,nan,0.000000
2,5,9,0,5496203,273932263,-1143074150488885799,1360513651.422176,11520,7752,8624,nan,0.000000
2,5,9,0,5496203,273932263,-1143074150488883178,1360513651.422176,11576,7876,8804,nan,0.000000
2,5,9,0,5496203,273932263,-1143074150488880557,1360513651.422176,11576,7804,8632,nan,0.000000
2,5,10,0,5496203,273932295,-1143074150488877936,1360513653.895773,11500,7828,8692,nan,0.000000
2,5,10,0,5496203,273932295,-1143074150488875315,1360513653.895773,11540,7824,8672,nan,0.000000
2,5,10,0,5496203,273932295,-1143074150488872694,1360513653.895773,11524,7832,8680,nan,0.000000
2,5,10,0,5496203,273932295,-1143074150488870073,1360513653.895773,11572,7876,8724,nan,0.000000
2,5,10,0,5496203,273932295,-1143074150488867452,1360513653.895773,11508,7788,8704,nan,0.000000
1,5,11,0,5577467,274013371,-2296395876120267743,1360513653.896951,11500,7868,8796,nan,0.000000
1,5,11,0,5577467,274013371,-2296395876120265122,1360513653.896951,11516,7772,8756,nan,0.000000
2,5,12,0,5577467,274013402,-2296395876120262501,1360513653.897544,11484,7792,8720,nan,0.000000
2,5,12,0,5577467,274013402,-2296395876120259880,1360513653.897544,11572,7896,8784,nan,0.000000
2,5,12,0,5577467,274013402,-2296395876120257259,1360513653.897544,11596,7744,8948,nan,0.000000
2,5,12,0,5577467,274013402,-2296395876120254638,1360513653.897544,11500,7764,8748,nan,0.000000
2,5,12,0,5577467,274013402,-2296395876120252017,1360513653.897544,11588,7508,8572,nan,0.000000
2,5,13,0,5577467,274013435,-2296395876120249396,1360513653.898298,11872,7388,8980,nan,0.000000
2,5,13,0,5577467,274013435,-2296395876120246775,1360513653.898298,11760,7336,8780,nan,0.000000
2,5,13,0,5577467,274013435,-2296395876120244154,1360513653.898298,11972,7612,8900,nan,0.000000
2,5,13,0,5577467,274013435,-2296395876120241533,1360513653.898298,12180,7628,8856,nan,0.000000
2,5,13,0,5577467,274013435,-2296395876120238912,1360513653.898298,12516,7064,8276,nan,0.000000
2,5,14,0,5577467,274013466,-2296395876120236291,1360513653.899358,12664,7084,7656,nan,0.000000
2,5,14,0,5577467,274013466,-2296395876120233670,1360513653.899358,12656,7280,7372,nan,0.000000
2,5,14,0,5577467,274013466,-2296395876120231049,1360513653.899358,12932,7176,7012,nan,0.000000
2,5,14,0,5577467,274013466,-2296395876120228428,1360513653.899358,12940,7784,6076,nan,0.000000
2,5,14,0,5577467,274013466,-2296395876120225807,1360513653.899358,14120,6320,5168,nan,0.000000
2,5,15,0,5577467,274013499,-2296395876120223186,1360513653.899968,15184,6628,4920,nan,0.000000
2,5,15,0,5577467,274013499,-2296395876120220565,1360513653.899968,14796,5824,4360,nan,0.000000
2,5,15,0,5577467,274013499,-2296395876120217944,1360513653.899968,14632,5400,3968,nan,0.000000
2,5,15,0,5577467,274013499,-2296395876120215323,1360513653.899968,14784,4336,3516,nan,0.000000
2,5,15,0,5577467,274013499,-2296395876120212702,1360513653.899968,15388,3764,2696,nan,0.000000
2,5,0,0,5577467,274013530,-2296395876120210081,1360513653.901464,15624,2616,1752,nan,0.000000
2,5,0,0,5577467,274013530,-2296395876120207460,1360513653.901464,17168,2728,2812,nan,0.000000
2,5,0,0,5577467,274013530,-2296395876120204839,1360513653.901464,15136,-2908,1944,nan,0.000000
2,5,0,0,5577467,274013530,-2296395876120202218,1360513653.901464,16896,-4164,-12,nan,0.000000
2,5,0,0,5577467,274013530,-2296395876120199597,1360513653.901464,18100,-6004,-1532,nan,0.000000
1,5,2,0,5658729,274257171,-6628519171628830466,1360513661.337504,17408,-2460,748,nan,0.000000
1,5,2,0,5658729,274257171,-6628519171628827845,1360513661.337504,17936,-4860,-5044,nan,0.000000
2,5,3,0,5658729,274257203,-6628519171628825224,1360513661.338237,13276,-5672,-1832,nan,0.000000
2,5,3,0,5658729,274257203,-6628519171628822603,1360513661.338237,14348,-2272,-2440,nan,0.000000
2,5,3,0,5658729,274257203,-6628519171628819982,1360513661.338237,14960,-3924,-3244,nan,0.000000
2,5,3,0,5658729,274257203,-6628519171628817361,1360513661.338237,13432,-5852,-4268,nan,0.000000
2,5,3,0,5658729,274257203,-6628519171628814740,1360513661.338237,13712,-6284,-4380,nan,0.000000
2,5,4,0,5658729,274257235,-6628519171628812119,1360513661.339426,14788,-7344,-6232,nan,0.000000
2,5,4,0,5658729,274257235,-6628519171628809498,1360513661.339426,21724,-7612,-4264,nan,0.000000
2,5,4,0,5658729,274257235,-6628519171628806877,1360513661.339426,12976,-396,1604,nan,0.000000
2,5,4,0,5658729,274257235,-6628519171628804256,1360513661.339426,16144,-4596,-356,nan,0.000000
2,5,4,0,5658729,274257235,-6628519171628801635,1360513661.339426,15032,-2692,-2968,nan,0.000000
2,5,5,0,5658729,274257266,-6628519171628799014,1360513661.340103,13148,-6076,-2728,nan,0.000000
2,5,5,0,5658729,274257266,-6628519171628796393,1360513661.340103,12924,-7172,-2880,nan,0.000000
2,5,5,0,5658729,274257266,-6628519171628793772,1360513661.340103,12820,-6788,-3996,nan,0.000000
2,5,5,0,5658729,274257266,-6628519171628791151,1360513661.340103,13100,-8324,-4080,nan,0.000000
2,5,5,0,5658729,274257266,-6628519171628788530,1360513661.340103,15208,-7420,-5336,nan,0.000000
2,5,6,0,5658729,274257298,-6628519171628785909,1360513661.341008,18612,-8060,-2768,nan,0.000000
2,5,6,0,5658729,274257298,-6628519171628783288,1360513661.341008,12168,-1692,576,nan,0.000000
2,5,6,0,5658729,274257298,-6628519171628780667,1360513661.341008,16108,-9264,-3836,nan,0.000000
2,5,6,0,5658729,274257298,-6628519171628778046,1360513661.341008,14936,-7604,-2508,nan,0.000000
2,5,6,0,5658729,274257298,-6628519171628775425,1360513661.341008,13984,-3840,-2116,nan,0.000000
2,5,7,0,5658729,274257330,-6628519171628772804,1360513661.342152,14344,-5608,-3372,nan,0.000000
2,5,7,0,5658729,274257330,-6628519171628770183,1360513661.342152,13964,-5916,-2928,nan,0.000000
2,5,7,0,5658729,274257330,-6628519171628767562,1360513661.342152,14788,-4116,-2940,nan,0.000000
2,5,7,0,5658729,274257330,-6628519171628764941,1360513661.342152,16252,-6440,-2044,nan,0.000000
2,5,7,0,5658729,274257330,-6628519171628762320,1360513661.342152,15172,-6496,660,nan,0.000000
2,5,8,0,5658729,274257363,-6628519171628759699,1360513661.344415,12816,-6748,-224,nan,0.000000
2,5,8,0,5658729,274257363,-6628519171628757078,1360513661.344415,13868,-8352,-1028,nan,0.000000
2,5,8,0,5658729,274257363,-6628519171628754457,1360513661.344415,14936,-6932,-2020,nan,0.000000
2,5,8,0,5658729,274257363,-6628519171628751836,1360513661.344415,15184,-7472,-668,nan,0.000000
2,5,8,0,5658729,274257363,-6628519171628749215,1360513661.344415,13644,-7452,-1556,nan,0.000000
1,5,9,0,5739991,274257394,-217473645361618689,1360513661.348501,14296,-7572,-1368,nan,0.000000
1,5,9,15,5739991,274257394,-217473645361616068,1360513661.348501,13548,-8492,-1032,nan,0.000000
2,5,10,15,5739991,274257427,-217473645361613447,1360513661.351506,13396,-8544,-720,nan,0.000000
2,5,10,15,5739991,274257427,-217473645361610826,1360513661.351506,13176,-8780,-1104,nan,0.000000
2,5,10,15,5739991,274257427,-217473645361608205,1360513661.351506,12100,-9664,-1124,nan,0.000000
2,5,10,15,5739991,274257427,-217473645361605584,1360513661.351506,17216,-6788,-748,nan,0.000000
2,5,10,15,5739991,274257427,-217473645361602963,1360513661.351506,14032,-5576,-2880,nan,0.000000
2,5,11,15,5739991,274257458,-217473645361600342,1360513661.355710,17880,-6544,-3844,nan,0.000000
2,5,11,15,5739991,274257458,-217473645361597721,1360513661.355710,13768,-3280,-2112,nan,0.000000
2,5,11,15,5739991,274257458,-217473645361595100,1360513661.355710,14292,-3008,-3624,nan,0.000000
2,5,11,15,5739991,274257458,-217473645361592479,1360513661.355710,14116,-5232,-3920,nan,0.000000
2,5,11,15,5739991,274257458,-217473645361589858,1360513661.355710,14212,-5328,-3312,nan,0.000000
2,5,12,15,5739991,274257491,-217473645361587237,1360513661.358138,14124,-5212,-4176,nan,0.000000
2,5,12,15,5739991,274257491,-217473645361584616,1360513661.358138,14400,-6344,-4484,nan,0.000000
2,5,12,15,5739991,274257491,-217473645361581995,1360513661.358138,14788,-7096,-5936,nan,0.000000
2,5,12,15,5739991,274257491,-217473645361579374,1360513661.358138,22768,-7276,-2972,nan,0.000000
2,5,12,15,5739991,274257491,-217473645361576753,1360513661.358138,9872,96,1900,nan,0.000000
2,5,13,15,5739991,274257522,-217473645361574132,1360513661.360559,18076,-3976,-1248,nan,0.000000
2,5,13,15,5739991,274257522,-217473645361571511,1360513661.360559,14792,-2736,-2164,nan,0.000000
2,5,13,15,5739991,274257522,-217473645361568890,1360513661.360559,12948,-7056,-2280,nan,0.000000
2,5,13,15,5739991,274257522,-217473645361566269,1360513661.360559,13480,-6616,-2660,nan,0.000000
2,5,13,15,5739991,274257522,-217473645361563648,1360513661.360559,12832,-6928,-3184,nan,0.000000
2,5,14,15,5739991,274257554,-217473645361561027,1360513661.363269,13396,-8336,-3120,nan,0.000000
2,5,14,15,5739991,274257554,-217473645361558406,1360513661.363269,14760,-7020,-3476,nan,0.000000
2,5,14,15,5739991,274257554,-217473645361555785,1360513661.363269,20104,-6608,-520,nan,0.000000
2,5,14,15,5739991,274257554,-217473645361553164,1360513661.363269,13380,-2704,-336,nan,0.000000
2,5,14,15,5739991,274257554,-217473645361550543,1360513661.363269,15876,-12360,-908,nan,0.000000
2,5,15,15,5739991,274257586,-217473645361547922,1360513661.365844,14628,-2268,-1236,nan,0.000000
2,5,15,15,5739991,274257586,-217473645361545301,1360513661.365844,13216,-6556,-1412,nan,0.000000
2,5,15,15,5739991,274257586,-217473645361542680,1360513661.365844,13932,-6144,-3064,nan,0.000000
2,5,15,15,5739991,274257586,-217473645361540059,1360513661.365844,13224,-6064,-3940,nan,0.000000
2,5,15,15,5739991,274257586,-217473645361537438,1360513661.365844,13536,-6272,-4944,nan,0.000000
1,5,0,0,5821253,274257618,9005621346573692155,1360513661.368634,13240,-3856,1540,nan,0.000000
1,5,0,0,5821253,274257618,9005621346573694776,1360513661.368634,13780,-5384,2036,nan,0.000000
2,5,1,0,5821253,274257650,9005621346573697397,1360513661.371899,17384,-2820,-2396,nan,0.000000
2,5,1,0,5821253,274257650,9005621346573700018,1360513661.371899,13168,-6532,-2276,nan,0.000000
2,5,1,0,5821253,274257650,9005621346573702639,1360513661.371899,13728,-6304,-2020,nan,0.000000
2,5,1,0,5821253,274257650,9005621346573705260,1360513661.371899,13124,-8256,-2416,nan,0.000000
2,5,1,0,5821253,274257650,9005621346573707881,1360513661.371899,14572,-6512,-3264,nan,0.000000
2,5,2,0,5821253,274257682,9005621346573710502,1360513661.375963,19488,-7632,-3360,nan,0.000000
2,5,2,0,5821253,274257682,9005621346573713123,1360513661.375963,10308,-4604,-872,nan,0.000000
2,5,2,0,5821253,274257682,9005621346573715744,1360513661.375963,15488,-7232,-1780,nan,0.000000
2,5,2,0,5821253,274257682,9005621346573718365,1360513661.375963,17192,-6868,-3704,nan,0.000000
2,5,2,0,5821253,274257682,9005621346573720986,1360513661.375963,13448,-5304,-1352,nan,0.000000
2,5,3,0,5821253,274257714,9005621346573723607,1360513661.380482,14024,-5584,-3352,nan,0.000000
2,5,3,0,5821253,274257714,9005621346573726228,1360513661.380482,14236,-6528,-3288,nan,0.000000
2,5,3,0,5821253,274257714,9005621346573728849,1360513661.380482,14300,-6084,-2812,nan,0.000000
2,5,3,0,5821253,274257714,9005621346573731470,1360513661.380482,14368,-5924,-2580,nan,0.000000
2,5,3,0,5821253,274257714,9005621346573734091,1360513661.380482,16444,-6348,-1696,nan,0.000000
2,5,4,0,5821253,274257746,9005621346573736712,1360513661.384436,13964,-5676,-668,nan,0.000000
2,5,4,0,5821253,274257746,9005621346573739333,1360513661.384436,12792,-7300,-548,nan,0.000000
2,5,4,0,5821253,274257746,9005621346573741954,1360513661.384436,17000,-6176,-3388,nan,0.000000
2,5,4,0,5821253,274257746,9005621346573744575,1360513661.384436,13340,-6916,-3244,nan,0.000000
2,5,4,0,5821253,274257746,9005621346573747196,1360513661.384436,14372,-6636,-2288,nan,0.000000
2,5,5,0,5821253,274257778,9005621346573749817,1360513661.391266,14460,-6860,-2432,nan,0.000000
2,5,5,0,5821253,274257778,9005621346573752438,1360513661.391266,13708,-7404,-2344,nan,0.000000
2,5,5,0,5821253,274257778,9005621346573755059,1360513661.391266,13260,-8368,-2348,nan,0.000000
2,5,5,0,5821253,274257778,9005621346573757680,1360513661.391266,13364,-8688,-2204,nan,0.000000
2,5,5,0,5821253,274257778,9005621346573760301,1360513661.391266,13212,-9040,-1680,nan,0.000000
2,5,6,0,5821253,274257810,9005621346573762922,1360513663.815497,19604,-7624,-2844,nan,0.000000
2,5,6,0,5821253,274257810,9005621346573765543,1360513663.815497,13004,-2336,-576,nan,0.000000
2,5,6,0,5821253,274257810,9005621346573768164,1360513663.815497,16892,-3852,-4552,nan,0.000000
2,5,6,0,5821253,274257810,9005621346573770785,1360513663.815497,14080,-5084,-3408,nan,0.000000
2,5,6,0,5821253,274257810,9005621346573773406,1360513663.815497,14160,-3064,-3244,nan,0.000000
1,5,7,0,5902516,274338439,-4540225498727127820,1360513663.817183,13540,-5032,-4388,nan,0.000000
1,5,7,0,5902516,274338439,-4540225498727125199,1360513663.817183,13816,-4892,-4816,nan,0.000000
2,5,8,0,5902516,274338471,-4540225498727122578,1360513663.817627,15336,-5192,-6008,nan,0.000000
2,5,8,0,5902516,274338471,-4540225498727119957,1360513663.817627,20964,-6880,-5520,nan,0.000000
2,5,8,0,5902516,274338471,-4540225498727117336,1360513663.817627,13860,-236,-1264,nan,0.000000
2,5,8,0,5902516,274338471,-4540225498727114715,1360513663.817627,14976,-3824,144,nan,0.000000
2,5,8,0,5902516,274338471,-4540225498727112094,1360513663.817627,16576,-1396,-3872,nan,0.000000
2,5,9,0,5902516,274338503,-4540225498727109473,1360513663.819163,12452,-6256,-2868,nan,0.000000
2,5,9,0,5902516,274338503,-4540225498727106852,1360513663.819163,13108,-6188,-3936,nan,0.000000
2,5,9,0,5902516,274338503,-4540225498727104231,1360513663.819163,13436,-6376,-4208,nan,0.000000
2,5,9,0,5902516,274338503,-4540225498727101610,1360513663.819163,13436,-7156,-4716,nan,0.000000
2,5,9,0,5902516,274338503,-4540225498727098989,1360513663.819163,16560,-9212,-3504,nan,0.000000
2,5,10,0,5902516,274338535,-4540225498727096368,1360513663.819989,18084,-5188,-5640,nan,0.000000
2,5,10,0,5902516,274338535,-4540225498727093747,1360513663.819989,11576,340,-684,nan,0.000000
2,5,10,0,5902516,274338535,-4540225498727091126,1360513663.819989,17536,-6832,-5332,nan,0.000000
2,5,10,0,5902516,274338535,-4540225498727088505,1360513663.819989,13844,-4472,-4008,nan,0.000000
2,5,10,0,5902516,274338535,-4540225498727085884,1360513663.819989,13516,-3364,-4144,nan,0.000000
2,5,11,0,5902516,274338566,-4540225498727083263,1360513663.821170,13600,-4412,-4908,nan,0.000000
2,5,11,0,5902516,274338566,-4540225498727080642,1360513663.821170,13616,-5372,-4788,nan,0.000000
2,5,11,0,5902516,274338566,-4540225498727078021,1360513663.821170,15004,-5372,-6180,nan,0.000000
2,5,11,0,5902516,274338566,-4540225498727075400,1360513663.821170,19736,-7000,-6596,nan,0.000000
2,5,11,0,5902516,274338566,-4540225498727072779,1360513663.821170,15432,-1564,-2680,nan,0.000000
2,5,12,0,5902516,274338599,-4540225498727070158,1360513663.821827,12144,-3036,-200,nan,0.000000
2,5,12,0,5902516,274338599,-4540225498727067537,1360513663.821827,18504,-2752,-4008,nan,0.000000
2,5,12,0,5902516,274338599,-4540225498727064916,1360513663.821827,13908,-4928,-3280,nan,0.000000
2,5,12,0,5902516,274338599,-4540225498727062295,1360513663.821827,13744,-5688,-3192,nan,0.000000
2,5,12,0,5902516,274338599,-4540225498727059674,1360513663.821827,14084,-6624,-4320,nan,0.000000
2,5,13,0,5902516,274338630,-4540225498727057053,1360513666.295403,13256,-6192,-4348,nan,0.000000
2,5,13,0,5902516,274338630,-4540225498727054432,1360513666.295403,14036,-7104,-3776,nan,0.000000
2,5,13,0,5902516,274338630,-4540225498727051811,1360513666.295403,17184,-5036,-4280,nan,0.000000
2,5,13,0,5902516,274338630,-4540225498727049190,1360513666.295403,14768,-2208,-2136,nan,0.000000
2,5,13,0,5902516,274338630,-4540225498727046569,1360513666.295403,14300,-2048,-2308,nan,0.000000
1,5,14,0,5983780,274419705,4679592839371687151,1360513666.297137,13456,-5544,-3136,nan,0.000000
1,5,14,0,5983780,274419705,4679592839371689772,1360513666.297137,14496,-2592,-4540,nan,0.000000
2,5,15,0,5983780,274419737,4679592839371692393,1360513666.297577,15492,-4904,-3872,nan,0.000000
2,5,15,0,5983780,274419737,4679592839371695014,1360513666.297577,14668,-4552,-4052,nan,0.000000
2,5,15,0,5983780,274419737,4679592839371697635,1360513666.297577,14876,-3432,-4852,nan,0.000000
2,5,15,0,5983780,274419737,4679592839371700256,1360513666.297577,15008,-3092,-4748,nan,0.000000
2,5,15,0,5983780,274419737,4679592839371702877,1360513666.297577,15000,-2548,-5188,nan,0.000000
2,5,0,0,5983780,274419769,4679592839371705498,1360513666.299056,14708,-3096,-5220,nan,0.000000
2,5,0,0,5983780,274419769,4679592839371708119,1360513666.299056,16724,-5324,-2552,nan,0.000000
2,5,0,0,5983780,274419769,4679592839371710740,1360513666.299056,13268,-5624,-3084,nan,0.000000
2,5,0,0,5983780,274419769,4679592839371713361,1360513666.299056,17772,-5440,-3456,nan,0.000000
2,5,0,0,5983780,274419769,4679592839371715982,1360513666.299056,12460,-6012,-2672,nan,0.000000
2,5,1,0,5983780,274419801,4679592839371718603,1360513666.299905,13196,-7244,-2588,nan,0.000000
2,5,1,0,5983780,274419801,4679592839371721224,1360513666.299905,14092,-6824,-3988,nan,0.000000
2,5,1,0,5983780,274419801,4679592839371723845,1360513666.299905,13648,-6680,-3644,nan,0.000000
2,5,1,0,5983780,274419801,4679592839371726466,1360513666.299905,13364,-6876,-3808,nan,0.000000
2,5,1,0,5983780,274419801,4679592839371729087,1360513666.299905,13892,-7320,-4372,nan,0.000000
2,5,2,0,5983780,274419833,4679592839371731708,1360513666.301025,14056,-8336,-5476,nan,0.000000
2,5,2,0,5983780,274419833,4679592839371734329,1360513666.301025,15244,-8132,-5412,nan,0.000000
2,5,2,0,5983780,274419833,4679592839371736950,1360513666.301025,18604,-6288,-1492,nan,0.000000
2,5,2,0,5983780,274419833,4679592839371739571,1360513666.301025,12640,-284,-280,nan,0.000000
2,5,2,0,5983780,274419833,4679592839371742192,1360513666.301025,16048,-11028,-3264,nan,0.000000
2,5,3,0,5983780,274419865,4679592839371744813,1360513666.301774,13416,-3948,-3112,nan,0.000000
2,5,3,0,5983780,274419865,4679592839371747434,1360513666.301774,13212,-4412,-2788,nan,0.000000
2,5,3,0,5983780,274419865,4679592839371750055,1360513666.301774,13676,-5048,-5252,nan,0.000000
2,5,3,0,5983780,274419865,4679592839371752676,1360513666.301774,13780,-5292,-4752,nan,0.000000
2,5,3,0,5983780,274419865,4679592839371755297,1360513666.301774,14160,-5456,-6552,nan,0.000000
2,5,4,0,5983780,274419897,4679592839371757918,1360513668.775397,19636,-9600,-5640,nan,0.000000
2,5,4,0,5983780,274419897,4679592839371760539,1360513668.775397,14968,-1256,-1524,nan,0.000000
2,5,4,0,5983780,274419897,4679592839371763160,1360513668.775397,14496,-4020,128,nan,0.000000
2,5,4,0,5983780,274419897,4679592839371765781,1360513668.775397,17268,-136,-3976,nan,0.000000
2,5,4,0,5983780,274419897,4679592839371768402,1360513668.775397,12148,-7696,-2276,nan,0.000000
1,5,5,0,6065045,274500976,935087340965787881,1360513668.777006,13380,-6228,-3220,nan,0.000000
1,5,5,0,6065045,274500976,935087340965790502,1360513668.777006,13348,-7448,-4188,nan,0.000000
2,5,6,0,6065045,274501008,935087340965793123,1360513668.777409,18348,-8168,-3748,nan,0.000000
2,5,6,0,6065045,274501008,935087340965795744,1360513668.777409,16764,-5424,-3560,nan,0.000000
2,5,6,0,6065045,274501008,935087340965798365,1360513668.777409,11660,-1040,-288,nan,0.000000
2,5,6,0,6065045,274501008,935087340965800986,1360513668.777409,17112,-6720,-4160,nan,0.000000
2,5,6,0,6065045,274501008,935087340965803607,1360513668.777409,14604,-7208,-3304,nan,0.000000
2,5,7,0,6065045,274501040,935087340965806228,1360513668.779057,13740,-5356,-3748,nan,0.000000
2,5,7,0,6065045,274501040,935087340965808849,1360513668.779057,13748,-6196,-3976,nan,0.000000
2,5,7,0,6065045,274501040,935087340965811470,1360513668.779057,13272,-6500,-4356,nan,0.000000
2,5,7,0,6065045,274501040,935087340965814091,1360513668.779057,14288,-4484,-4516,nan,0.000000
2,5,7,0,6065045,274501040,935087340965816712,1360513668.779057,14576,-4508,-5284,nan,0.000000
2,5,8,0,6065045,274501072,935087340965819333,1360513668.780006,16624,-5304,-4236,nan,0.000000
2,5,8,0,6065045,274501072,935087340965821954,1360513668.780006,16816,-5956,-1424,nan,0.000000
2,5,8,0,6065045,274501072,935087340965824575,1360513668.780006,13488,-6612,60,nan,0.000000
2,5,8,0,6065045,274501072,935087340965827196,1360513668.780006,12236,-6492,-1072,nan,0.000000
2,5,8,0,6065045,274501072,935087340965829817,1360513668.780006,14140,-8492,-664,nan,0.000000
2,5,9,0,6065045,274501103,935087340965832438,1360513668.781021,16532,-5668,-416,nan,0.000000
2,5,9,0,6065045,274501103,935087340965835059,1360513668.781021,15236,-5528,-1184,nan,0.000000
2,5,9,0,6065045,274501103,935087340965837680,1360513668.781021,13904,-6988,-600,nan,0.000000
2,5,9,0,6065045,274501103,935087340965840301,1360513668.781021,15644,-6536,-516,nan,0.000000
2,5,9,0,6065045,274501103,935087340965842922,1360513668.781021,15256,-5916,-968,nan,0.000000
2,5,10,0,6065045,274501136,935087340965845543,1360513668.781724,14028,-7988,-412,nan,0.000000
2,5,10,0,6065045,274501136,935087340965848164,1360513668.781724,13580,-8288,-508,nan,0.000000
2,5,10,0,6065045,274501136,935087340965850785,1360513668.781724,13424,-8504,-244,nan,0.000000
2,5,10,0,6065045,274501136,935087340965853406,1360513668.781724,15008,-7380,-576,nan,0.000000
2,5,10,0,6065045,274501136,935087340965856027,1360513668.781724,15732,-6556,-2260,nan,0.000000
2,5,11,0,6065045,274501167,935087340965858648,1360513671.257440,13848,-3884,-2020,nan,0.000000
2,5,11,0,6065045,274501167,935087340965861269,1360513671.257440,17828,-5620,-5072,nan,0.000000
2,5,11,0,6065045,274501167,935087340965863890,1360513671.257440,14488,-3380,-2764,nan,0.000000
2,5,11,0,6065045,274501167,935087340965866511,1360513671.257440,13760,-3956,-3572,nan,0.000000
2,5,11,0,6065045,274501167,935087340965869132,1360513671.257440,14184,-5248,-5012,nan,0.000000
1,5,12,0,6146312,274582245,3525206810242129144,1360513671.258595,14172,-5584,-4676,nan,0.000000
1,5,12,0,6146312,274582245,3525206810242131765,1360513671.258595,14912,-5544,-6108,nan,0.000000
2,5,13,0,6146312,274582277,3525206810242134386,1360513671.259331,15000,-6452,-7804,nan,0.000000
2,5,13,0,6146312,274582277,3525206810242137007,1360513671.259331,19008,-4128,-2604,nan,0.000000
2,5,13,0,6146312,274582277,3525206810242139628,1360513671.259331,11380,-4060,60,nan,0.000000
2,5,13,0,6146312,274582277,3525206810242142249,1360513671.259331,17124,-3552,-3284,nan,0.000000
2,5,13,0,6146312,274582277,3525206810242144870,1360513671.259331,14628,-3456,-4120,nan,0.000000
2,5,14,0,6146312,274582309,3525206810242147491,1360513671.260187,12388,-6308,-3072,nan,0.000000
2,5,14,0,6146312,274582309,3525206810242150112,1360513671.260187,13704,-6432,-3936,nan,0.000000
2,5,14,0,6146312,274582309,3525206810242152733,1360513671.260187,13392,-6000,-4016,nan,0.000000
2,5,14,0,6146312,274582309,3525206810242155354,1360513671.260187,14692,-6960,-4564,nan,0.000000
2,5,14,0,6146312,274582309,3525206810242157975,1360513671.260187,15200,-9440,-5124,nan,0.000000
2,5,15,0,6146312,274582341,3525206810242160596,1360513671.264915,19572,-5200,-3444,nan,0.000000
2,5,15,0,6146312,274582341,3525206810242163217,1360513671.264915,12440,-8,-468,nan,0.000000
2,5,15,0,6146312,274582341,3525206810242165838,1360513671.264915,16716,-7336,-3648,nan,0.000000
2,5,15,0,6146312,274582341,3525206810242168459,1360513671.264915,14104,-5940,-3832,nan,0.000000
2,5,15,0,6146312,274582341,3525206810242171080,1360513671.264915,13248,-2928,-4016,nan,0.000000
2,5,0,0,6146312,274582373,3525206810242173701,1360513671.267168,13316,-4416,-5028,nan,0.000000
2,5,0,0,6146312,274582373,3525206810242176322,1360513671.267168,13204,-5564,-5648,nan,0.000000
2,5,0,0,6146312,274582373,3525206810242178943,1360513671.267168,14616,-5156,-6320,nan,0.000000
2,5,0,0,6146312,274582373,3525206810242181564,1360513671.267168,20668,-7792,-5704,nan,0.000000
2,5,0,0,6146312,274582373,3525206810242184185,1360513671.267168,13660,-644,-3084,nan,0.000000
2,5,1,0,6146312,274582405,3525206810242186806,1360513671.270723,13472,-3492,-264,nan,0.000000
2,5,1,0,6146312,274582405,3525206810242189427,1360513671.270723,18176,-1568,-4140,nan,0.000000
2,5,1,0,6146312,274582405,3525206810242192048,1360513671.270723,13996,-6200,-2696,nan,0.000000
2,5,1,0,6146312,274582405,3525206810242194669,1360513671.270723,14244,-4424,-3208,nan,0.000000
2,5,1,0,6146312,274582405,3525206810242197290,1360513671.270723,13620,-7592,-3908,nan,0.000000
2,5,2,0,6146312,274582437,3525206810242199911,1360513673.737254,13940,-5884,-4344,nan,0.000000
2,5,2,0,6146312,274582437,3525206810242202532,1360513673.737254,14048,-7928,-3060,nan,0.000000
2,5,2,0,6146312,274582437,3525206810242205153,1360513673.737254,16924,-4308,-3724,nan,0.000000
2,5,2,0,6146312,274582437,3525206810242207774,1360513673.737254,14364,-2608,-1992,nan,0.000000
2,5,2,0,6146312,274582437,3525206810242210395,1360513673.737254,16052,-1796,-3632,nan,0.000000
1,5,3,0,6227575,274663530,933380788994836719,1360513673.738410,15132,-3312,-4596,nan,0.000000
1,5,3,0,6227575,274663530,933380788994839340,1360513673.738410,14808,-3740,-3968,nan,0.000000
2,5,4,0,6227575,274663562,933380788994841961,1360513673.739176,14640,-4384,-4580,nan,0.000000
2,5,4,0,6227575,274663562,933380788994844582,1360513673.739176,14752,-3704,-5044,nan,0.000000
2,5,4,0,6227575,274663562,933380788994847203,1360513673.739176,14468,-2968,-5412,nan,0.000000
2,5,4,0,6227575,274663562,933380788994849824,1360513673.739176,14512,-3080,-5576,nan,0.000000
2,5,4,0,6227575,274663562,933380788994852445,1360513673.739176,15112,-2836,-6272,nan,0.000000
2,5,5,0,6227575,274663594,933380788994855066,1360513673.740029,14972,-2556,-6520,nan,0.000000
2,5,5,0,6227575,274663594,933380788994857687,1360513673.740029,18504,-2912,-6056,nan,0.000000
2,5,5,0,6227575,274663594,933380788994860308,1360513673.740029,13228,-1412,-3236,nan,0.000000
2,5,5,0,6227575,274663594,933380788994862929,1360513673.740029,15476,-5844,-228,nan,0.000000
2,5,5,0,6227575,274663594,933380788994865550,1360513673.740029,16072,-3540,-3084,nan,0.000000
2,5,6,0,6227575,274663626,933380788994868171,1360513673.740857,13716,-6412,-2724,nan,0.000000
2,5,6,0,6227575,274663626,933380788994870792,1360513673.740857,14156,-5324,-3856,nan,0.000000
2,5,6,0,6227575,274663626,933380788994873413,1360513673.740857,13780,-6404,-4328,nan,0.000000
2,5,6,0,6227575,274663626,933380788994876034,1360513673.740857,13852,-5912,-4676,nan,0.000000
2,5,6,0,6227575,274663626,933380788994878655,1360513673.740857,13988,-6804,-4636,nan,0.000000
2,5,7,0,6227575,274663658,933380788994881276,1360513673.741654,13492,-7512,-5076,nan,0.000000
2,5,7,0,6227575,274663658,933380788994883897,1360513673.741654,18856,-6376,-4988,nan,0.000000
2,5,7,0,6227575,274663658,933380788994886518,1360513673.741654,12220,-2252,-1272,nan,0.000000
2,5,7,0,6227575,274663658,933380788994889139,1360513673.741654,16752,-4052,-5100,nan,0.000000
2,5,7,0,6227575,274663658,933380788994891760,1360513673.741654,14348,-6860,-4068,nan,0.000000
2,5,8,0,6227575,274663690,933380788994894381,1360513673.742864,13168,-4028,-4272,nan,0.000000
2,5,8,0,6227575,274663690,933380788994897002,1360513673.742864,14320,-4772,-5016,nan,0.000000
2,5,8,0,6227575,274663690,933380788994899623,1360513673.742864,13800,-4804,-5692,nan,0.000000
2,5,8,0,6227575,274663690,933380788994902244,1360513673.742864,14428,-4976,-5576,nan,0.000000
2,5,8,0,6227575,274663690,933380788994904865,1360513673.742864,15320,-4500,-6892,nan,0.000000
2,5,9,0,6227575,274663722,933380788994907486,1360513676.217211,16376,-7072,-5960,nan,0.000000
2,5,9,0,6227575,274663722,933380788994910107,1360513676.217211,16572,-2584,-1792,nan,0.000000
2,5,9,0,6227575,274663722,933380788994912728,1360513676.217211,12692,-5508,-304,nan,0.000000
2,5,9,0,6227575,274663722,933380788994915349,1360513676.217211,16480,-3464,-3328,nan,0.000000
2,5,9,0,6227575,274663722,933380788994917970,1360513676.217211,13716,-5448,-3272,nan,0.000000
1,5,10,0,6308839,274744781,70343411323943144,1360513676.218497,13384,-6476,-4360,nan,0.000000
1,5,10,0,6308839,274744781,70343411323945765,1360513676.218497,13416,-6720,-4300,nan,0.000000
2,5,11,0,6308839,274744813,70343411323948386,1360513676.219075,14172,-7332,-4632,nan,0.000000
2,5,11,0,6308839,274744813,70343411323951007,1360513676.219075,17692,-7368,-5356,nan,0.000000
2,5,11,0,6308839,274744813,70343411323953628,1360513676.219075,15752,-4568,-716,nan,0.000000
2,5,11,0,6308839,274744813,70343411323956249,1360513676.219075,13588,-3004,-2816,nan,0.000000
2,5,11,0,6308839,274744813,70343411323958870,1360513676.219075,15496,-9616,-3808,nan,0.000000
2,5,12,0,6308839,274744845,70343411323961491,1360513676.220404,13580,-4064,-4412,nan,0.000000
2,5,12,0,6308839,274744845,70343411323964112,1360513676.220404,13524,-4896,-3992,nan,0.000000
2,5,12,0,6308839,274744845,70343411323966733,1360513676.220404,13664,-5224,-5200,nan,0.000000
2,5,12,0,6308839,274744845,70343411323969354,1360513676.220404,13776,-5280,-5152,nan,0.000000
2,5,12,0,6308839,274744845,70343411323971975,1360513676.220404,14340,-4772,-6180,nan,0.000000
2,5,13,0,6308839,274744877,70343411323974596,1360513676.221294,19016,-6136,-5360,nan,0.000000
2,5,13,0,6308839,274744877,70343411323977217,1360513676.221294,14636,-2616,-2264,nan,0.000000
2,5,13,0,6308839,274744877,70343411323979838,1360513676.221294,12992,-2940,-588,nan,0.000000
2,5,13,0,6308839,274744877,70343411323982459,1360513676.221294,18540,-3356,-3920,nan,0.000000
2,5,13,0,6308839,274744877,70343411323985080,1360513676.221294,14212,-4824,-3488,nan,0.000000
2,5,14,0,6308839,274744909,70343411323987701,1360513676.222033,14116,-4380,-2924,nan,0.000000
2,5,14,0,6308839,274744909,70343411323990322,1360513676.222033,15444,-5320,-3280,nan,0.000000
2,5,14,0,6308839,274744909,70343411323992943,1360513676.222033,15816,-4404,-3036,nan,0.000000
2,5,14,0,6308839,274744909,70343411323995564,1360513676.222033,14724,-3448,-2896,nan,0.000000
2,5,14,0,6308839,274744909,70343411323998185,1360513676.222033,13912,-3696,-2228,nan,0.000000
2,5,15,0,6308839,274744941,70343411324000806,1360513676.222864,15568,-5332,-4652,nan,0.000000
2,5,15,0,6308839,274744941,70343411324003427,1360513676.222864,16668,-4076,-5780,nan,0.000000
2,5,15,0,6308839,274744941,70343411324006048,1360513676.222864,13348,-4352,-4180,nan,0.000000
2,5,15,0,6308839,274744941,70343411324008669,1360513676.222864,14264,-3152,-6152,nan,0.000000
2,5,15,0,6308839,274744941,70343411324011290,1360513676.222864,14556,-2320,-7132,nan,0.000000
2,5,0,0,6308839,274744973,70343411324013911,1360513678.697154,14356,-2276,-7360,nan,0.000000
2,5,0,0,6308839,274744973,70343411324016532,1360513678.697154,17528,-3288,-6512,nan,0.000000
2,5,0,0,6308839,274744973,70343411324019153,1360513678.697154,16428,-2756,-5200,nan,0.000000
2,5,0,0,6308839,274744973,70343411324021774,1360513678.697154,12800,-3264,-1060,nan,0.000000
2,5,0,0,6308839,274744973,70343411324024395,1360513678.697154,17520,-3248,-2012,nan,0.000000
1,5,1,0,6390103,274826047,-8005666261444575005,1360513678.700050,14772,-4632,-3332,nan,0.000000
1,5,1,0,6390103,274826047,-8005666261444572384,1360513678.700050,14672,-5308,-3836,nan,0.000000
2,5,2,0,6390103,274826079,-8005666261444569763,1360513678.700512,14188,-5728,-4492,nan,0.000000
2,5,2,0,6390103,274826079,-8005666261444567142,1360513678.700512,13732,-6052,-4412,nan,0.000000
2,5,2,0,6390103,274826079,-8005666261444564521,1360513678.700512,14776,-5740,-4468,nan,0.000000
2,5,2,0,6390103,274826079,-8005666261444561900,1360513678.700512,16056,-5960,-4040,nan,0.000000
2,5,2,0,6390103,274826079,-8005666261444559279,1360513678.700512,13156,-3540,-2140,nan,0.000000
2,5,3,0,6390103,274826111,-8005666261444556658,1360513678.701399,14760,-2620,-3716,nan,0.000000
2,5,3,0,6390103,274826111,-8005666261444554037,1360513678.701399,16980,-3772,-5972,nan,0.000000
2,5,3,0,6390103,274826111,-8005666261444551416,1360513678.701399,14180,-5240,-4000,nan,0.000000
2,5,3,0,6390103,274826111,-8005666261444548795,1360513678.701399,14772,-3568,-4816,nan,0.000000
2,5,3,0,6390103,274826111,-8005666261444546174,1360513678.701399,15176,-3832,-4732,nan,0.000000
2,5,4,0,6390103,274826143,-8005666261444543553,1360513678.702247,14748,-4288,-4644,nan,0.000000
2,5,4,0,6390103,274826143,-8005666261444540932,1360513678.702247,14656,-3152,-4956,nan,0.000000
2,5,4,0,6390103,274826143,-8005666261444538311,1360513678.702247,14916,-2696,-5516,nan,0.000000
2,5,4,0,6390103,274826143,-8005666261444535690,1360513678.702247,15156,-2436,-6568,nan,0.000000
2,5,4,0,6390103,274826143,-8005666261444533069,1360513678.702247,17396,-4500,-5660,nan,0.000000
2,5,5,0,6390103,274826175,-8005666261444530448,1360513678.702942,16100,-2396,-4396,nan,0.000000
2,5,5,0,6390103,274826175,-8005666261444527827,1360513678.702942,13080,-5312,-1344,nan,0.000000
2,5,5,0,6390103,274826175,-8005666261444525206,1360513678.702942,15164,-5764,-1404,nan,0.000000
2,5,5,0,6390103,274826175,-8005666261444522585,1360513678.702942,14828,-5728,-4060,nan,0.000000
2,5,5,0,6390103,274826175,-8005666261444519964,1360513678.702942,13024,-6600,-3408,nan,0.000000
2,5,6,0,6390103,274826207,-8005666261444517343,1360513678.703597,14172,-5020,-3852,nan,0.000000
2,5,6,0,6390103,274826207,-8005666261444514722,1360513678.703597,14060,-6260,-4084,nan,0.000000
2,5,6,0,6390103,274826207,-8005666261444512101,1360513678.703597,13812,-6512,-4092,nan,0.000000
2,5,6,0,6390103,274826207,-8005666261444509480,1360513678.703597,14000,-6752,-4660,nan,0.000000
2,5,6,0,6390103,274826207,-8005666261444506859,1360513678.703597,15548,-8096,-4932,nan,0.000000
2,5,7,0,6390103,274826239,-8005666261444504238,1360513681.176978,17120,-7060,-3356,nan,0.000000
2,5,7,0,6390103,274826239,-8005666261444501617,1360513681.176978,12660,-1868,-1376,nan,0.000000
2,5,7,0,6390103,274826239,-8005666261444498996,1360513681.176978,16320,-7392,-5004,nan,0.000000
2,5,7,0,6390103,274826239,-8005666261444496375,1360513681.176978,13436,-6060,-3720,nan,0.000000
2,5,7,0,6390103,274826239,-8005666261444493754,1360513681.176978,13844,-4304,-3888,nan,0.000000
1,5,8,0,6471366,274907337,-6846961304269101838,1360513681.178685,13440,-5300,-5000,nan,0.000000
1,5,8,0,6471366,274907337,-6846961304269099217,1360513681.178685,13604,-5272,-6052,nan,0.000000
2,5,9,0,6471366,274907370,-6846961304269096596,1360513681.179083,14864,-5672,-7040,nan,0.000000
2,5,9,0,6471366,274907370,-6846961304269093975,1360513681.179083,16672,-6848,-7000,nan,0.000000
2,5,9,0,6471366,274907370,-6846961304269091354,1360513681.179083,15628,-2564,-2944,nan,0.000000
2,5,9,0,6471366,274907370,-6846961304269088733,1360513681.179083,12996,-4584,-2080,nan,0.000000
2,5,9,0,6471366,274907370,-6846961304269086112,1360513681.179083,15864,-3756,-4964,nan,0.000000
2,5,10,0,6471366,274907401,-6846961304269083491,1360513681.180666,13660,-6164,-4380,nan,0.000000
2,5,10,0,6471366,274907401,-6846961304269080870,1360513681.180666,13004,-5332,-3900,nan,0.000000
2,5,10,0,6471366,274907401,-6846961304269078249,1360513681.180666,14004,-6292,-4536,nan,0.000000
2,5,10,0,6471366,274907401,-6846961304269075628,1360513681.180666,13844,-5744,-4652,nan,0.000000
2,5,10,0,6471366,274907401,-6846961304269073007,1360513681.180666,13900,-7464,-4780,nan,0.000000
2,5,11,0,6471366,274907433,-6846961304269070386,1360513681.181636,15328,-8448,-5832,nan,0.000000
2,5,11,0,6471366,274907433,-6846961304269067765,1360513681.181636,16948,-6804,-3792,nan,0.000000
2,5,11,0,6471366,274907433,-6846961304269065144,1360513681.181636,12816,-1388,-1160,nan,0.000000
2,5,11,0,6471366,274907433,-6846961304269062523,1360513681.181636,16388,-5020,-4428,nan,0.000000
2,5,11,0,6471366,274907433,-6846961304269059902,1360513681.181636,14488,-9308,-3980,nan,0.000000
2,5,12,0,6471366,274907465,-6846961304269057281,1360513681.182660,13320,-4220,-3592,nan,0.000000
2,5,12,0,6471366,274907465,-6846961304269054660,1360513681.182660,13900,-3992,-4796,nan,0.000000
2,5,12,0,6471366,274907465,-6846961304269052039,1360513681.182660,13836,-5612,-4752,nan,0.000000
2,5,12,0,6471366,274907465,-6846961304269049418,1360513681.182660,14092,-5324,-5008,nan,0.000000
2,5,12,0,6471366,274907465,-6846961304269046797,1360513681.182660,13864,-6056,-5472,nan,0.000000
2,5,13,0,6471366,274907497,-6846961304269044176,1360513681.183208,19036,-5668,-4716,nan,0.000000
2,5,13,0,6471366,274907497,-6846961304269041555,1360513681.183208,13648,-3188,-3464,nan,0.000000
2,5,13,0,6471366,274907497,-6846961304269038934,1360513681.183208,13424,-3312,-672,nan,0.000000
2,5,13,0,6471366,274907497,-6846961304269036313,1360513681.183208,18892,-2780,-3132,nan,0.000000
2,5,13,0,6471366,274907497,-6846961304269033692,1360513681.183208,15032,-5408,-3208,nan,0.000000
1,5,15,0,6552628,275151116,-8576251264344971014,1360513688.618854,14736,-2480,-3768,nan,0.000000
1,5,15,0,6552628,275151116,-8576251264344968393,1360513688.618854,15588,-5472,-4468,nan,0.000000
2,5,0,0,6552628,275151148,-8576251264344965772,1360513688.619741,14808,-5012,-4140,nan,0.000000
2,5,0,0,6552628,275151148,-8576251264344963151,1360513688.619741,14184,-4160,-4300,nan,0.000000
2,5,0,0,6552628,275151148,-8576251264344960530,1360513688.619741,14960,-3716,-5032,nan,0.000000
2,5,0,0,6552628,275151148,-8576251264344957909,1360513688.619741,14792,-2368,-6044,nan,0.000000
2,5,0,0,6552628,275151148,-8576251264344955288,1360513688.619741,18180,-2724,-5340,nan,0.000000
2,5,1,0,6552628,275151180,-8576251264344952667,1360513688.620888,17360,-2152,-4328,nan,0.000000
2,5,1,0,6552628,275151180,-8576251264344950046,1360513688.620888,12484,-3532,-996,nan,0.000000
2,5,1,0,6552628,275151180,-8576251264344947425,1360513688.620888,16748,-3020,-1708,nan,0.000000
2,5,1,0,6552628,275151180,-8576251264344944804,1360513688.620888,15524,-3620,-2952,nan,0.000000
2,5,1,0,6552628,275151180,-8576251264344942183,1360513688.620888,14680,-4468,-2980,nan,0.000000
2,5,2,0,6552628,275151212,-8576251264344939562,1360513688.621709,14732,-5264,-3264,nan,0.000000
2,5,2,0,6552628,275151212,-8576251264344936941,1360513688.621709,14488,-5276,-4276,nan,0.000000
2,5,2,0,6552628,275151212,-8576251264344934320,1360513688.621709,14152,-5852,-4068,nan,0.000000
2,5,2,0,6552628,275151212,-8576251264344931699,1360513688.621709,15592,-5508,-3768,nan,0.000000
2,5,2,0,6552628,275151212,-8576251264344929078,1360513688.621709,14176,-5364,-2960,nan,0.000000
2,5,3,0,6552628,275151244,-8576251264344926457,1360513688.627270,14120,-3008,-2988,nan,0.000000
2,5,3,0,6552628,275151244,-8576251264344923836,1360513688.627270,15976,-3536,-3748,nan,0.000000
2,5,3,0,6552628,275151244,-8576251264344921215,1360513688.627270,15648,-4836,-4720,nan,0.000000
2,5,3,0,6552628,275151244,-8576251264344918594,1360513688.627270,15220,-3988,-4184,nan,0.000000
2,5,3,0,6552628,275151244,-8576251264344915973,1360513688.627270,14828,-4240,-3692,nan,0.000000
2,5,4,0,6552628,275151276,-8576251264344913352,1360513688.631973,14872,-4448,-4516,nan,0.000000
2,5,4,0,6552628,275151276,-8576251264344910731,1360513688.631973,14664,-3408,-4824,nan,0.000000
2,5,4,0,6552628,275151276,-8576251264344908110,1360513688.631973,15140,-2340,-5172,nan,0.000000
2,5,4,0,6552628,275151276,-8576251264344905489,1360513688.631973,14912,-2924,-4992,nan,0.000000
2,5,4,0,6552628,275151276,-8576251264344902868,1360513688.631973,14652,-2732,-5348,nan,0.000000
2,5,5,0,6552628,275151308,-8576251264344900247,1360513688.634658,20684,-3240,-1552,nan,0.000000
2,5,5,0,6552628,275151308,-8576251264344897626,1360513688.634658,13384,-2656,-2660,nan,0.000000
2,5,5,0,6552628,275151308,-8576251264344895005,1360513688.634658,14728,-5580,1016,nan,0.000000
2,5,5,0,6552628,275151308,-8576251264344892384,1360513688.634658,15612,-5316,-2632,nan,0.000000
2,5,5,0,6552628,275151308,-8576251264344889763,1360513688.634658,13820,-6128,-3012,nan,0.000000
1,5,6,0,6633891,275151340,-7136621059159822087,1360513688.638325,14128,-6044,-3576,nan,0.000000
1,5,6,15,6633891,275151340,-7136621059159819466,1360513688.638325,13604,-6468,-3840,nan,0.000000
2,5,7,15,6633891,275151372,-7136621059159816845,1360513688.640489,14032,-6392,-4252,nan,0.000000
2,5,7,15,6633891,275151372,-7136621059159814224,1360513688.640489,15720,-7284,-4252,nan,0.000000
2,5,7,15,6633891,275151372,-7136621059159811603,1360513688.640489,15088,-8504,-5212,nan,0.000000
2,5,7,15,6633891,275151372,-7136621059159808982,1360513688.640489,18032,-4608,-980,nan,0.000000
2,5,7,15,6633891,275151372,-7136621059159806361,1360513688.640489,14104,-2384,-2092,nan,0.000000
2,5,8,15,6633891,275151404,-7136621059159803740,1360513688.644468,15200,-7536,-3188,nan,0.000000
2,5,8,15,6633891,275151404,-7136621059159801119,1360513688.644468,13680,-4140,-3868,nan,0.000000
2,5,8,15,6633891,275151404,-7136621059159798498,1360513688.644468,13132,-3732,-3624,nan,0.000000
2,5,8,15,6633891,275151404,-7136621059159795877,1360513688.644468,13608,-3736,-4684,nan,0.000000
2,5,8,15,6633891,275151404,-7136621059159793256,1360513688.644468,13120,-5360,-4896,nan,0.000000
2,5,9,15,6633891,275151436,-7136621059159790635,1360513688.648117,15688,-5392,-6320,nan,0.000000
2,5,9,15,6633891,275151436,-7136621059159788014,1360513688.648117,20248,-6896,-5764,nan,0.000000
2,5,9,15,6633891,275151436,-7136621059159785393,1360513688.648117,15448,-1732,-1208,nan,0.000000
2,5,9,15,6633891,275151436,-7136621059159782772,1360513688.648117,13276,-3704,-192,nan,0.000000
2,5,9,15,6633891,275151436,-7136621059159780151,1360513688.648117,17328,-2736,-3076,nan,0.000000
2,5,10,15,6633891,275151468,-7136621059159777530,1360513688.650599,13604,-4560,-3124,nan,0.000000
2,5,10,15,6633891,275151468,-7136621059159774909,1360513688.650599,13384,-5712,-3296,nan,0.000000
2,5,10,15,6633891,275151468,-7136621059159772288,1360513688.650599,13364,-6648,-4052,nan,0.000000
2,5,10,15,6633891,275151468,-7136621059159769667,1360513688.650599,12932,-6096,-4676,nan,0.000000
2,5,10,15,6633891,275151468,-7136621059159767046,1360513688.650599,13980,-7220,-4976,nan,0.000000
2,5,11,15,6633891,275151500,-7136621059159764425,1360513688.654979,15696,-7584,-6280,nan,0.000000
2,5,11,15,6633891,275151500,-7136621059159761804,1360513688.654979,18644,-7068,-3768,nan,0.000000
2,5,11,15,6633891,275151500,-7136621059159759183,1360513688.654979,10864,-2592,-464,nan,0.000000
2,5,11,15,6633891,275151500,-7136621059159756562,1360513688.654979,15772,-8064,-3488,nan,0.000000
2,5,11,15,6633891,275151500,-7136621059159753941,1360513688.654979,14376,-8332,-2908,nan,0.000000
2,5,12,15,6633891,275151532,-7136621059159751320,1360513688.657908,13512,-5916,-2728,nan,0.000000
2,5,12,15,6633891,275151532,-7136621059159748699,1360513688.657908,14540,-6432,-3116,nan,0.000000
2,5,12,15,6633891,275151532,-7136621059159746078,1360513688.657908,14452,-5752,-2996,nan,0.000000
2,5,12,15,6633891,275151532,-7136621059159743457,1360513688.657908,13800,-5684,-3340,nan,0.000000
2,5,12,15,6633891,275151532,-7136621059159740836,1360513688.657908,13960,-4532,-3144,nan,0.000000
1,5,13,0,6715154,275151564,-3101888436454795019,1360513688.660678,15140,-6648,-1180,nan,0.000000
1,5,13,0,6715154,275151564,-3101888436454792398,1360513688.660678,13736,-8532,796,nan,0.000000
2,5,14,0,6715154,275151596,-3101888436454789777,1360513688.661062,14880,-6828,-1280,nan,0.000000
2,5,14,0,6715154,275151596,-3101888436454787156,1360513688.661062,14612,-6796,-1796,nan,0.000000
2,5,14,0,6715154,275151596,-3101888436454784535,1360513688.661062,14652,-6744,-1200,nan,0.000000
2,5,14,0,6715154,275151596,-3101888436454781914,1360513688.661062,15084,-5480,-1440,nan,0.000000
2,5,14,0,6715154,275151596,-3101888436454779293,1360513688.661062,14512,-7344,-1936,nan,0.000000
2,5,15,0,6715154,275151628,-3101888436454776672,1360513688.661598,14076,-7308,-1000,nan,0.000000
2,5,15,0,6715154,275151628,-3101888436454774051,1360513688.661598,13496,-8188,-936,nan,0.000000
2,5,15,0,6715154,275151628,-3101888436454771430,1360513688.661598,13356,-8344,-580,nan,0.000000
2,5,15,0,6715154,275151628,-3101888436454768809,1360513688.661598,16268,-5284,76,nan,0.000000
2,5,15,0,6715154,275151628,-3101888436454766188,1360513688.661598,14608,-4440,-4320,nan,0.000000
2,5,0,0,6715154,275151660,-3101888436454763567,1360513688.674232,17912,-5448,-3936,nan,0.000000
2,5,0,0,6715154,275151660,-3101888436454760946,1360513688.674232,15636,-3828,-3420,nan,0.000000
2,5,0,0,6715154,275151660,-3101888436454758325,1360513688.674232,13932,-1212,-3916,nan,0.000000
2,5,0,0,6715154,275151660,-3101888436454755704,1360513688.674232,13964,-4908,-4564,nan,0.000000
2,5,0,0,6715154,275151660,-3101888436454753083,1360513688.674232,13956,-4880,-4636,nan,0.000000
2,5,1,0,6715154,275151692,-3101888436454750462,1360513688.678204,13480,-4908,-4960,nan,0.000000
2,5,1,0,6715154,275151692,-3101888436454747841,1360513688.678204,14308,-5548,-4812,nan,0.000000
2,5,1,0,6715154,275151692,-3101888436454745220,1360513688.678204,15352,-5904,-6820,nan,0.000000
2,5,1,0,6715154,275151692,-3101888436454742599,1360513688.678204,20844,-6356,-5004,nan,0.000000
2,5,1,0,6715154,275151692,-3101888436454739978,1360513688.678204,14608,-588,-204,nan,0.000000
2,5,2,0,6715154,275151724,-3101888436454737357,1360513688.678869,14224,-3652,416,nan,0.000000
2,5,2,0,6715154,275151724,-3101888436454734736,1360513688.678869,16532,-1324,-3876,nan,0.000000
2,5,2,0,6715154,275151724,-3101888436454732115,1360513688.678869,13936,-5932,-2616,nan,0.000000
2,5,2,0,6715154,275151724,-3101888436454729494,1360513688.678869,12096,-6108,-3192,nan,0.000000
2,5,2,0,6715154,275151724,-3101888436454726873,1360513688.678869,12844,-7240,-4120,nan,0.000000
2,5,3,0,6715154,275151756,-3101888436454724252,1360513691.096809,12996,-6656,-4872,nan,0.000000
2,5,3,0,6715154,275151756,-3101888436454721631,1360513691.096809,13972,-8732,-5296,nan,0.000000
2,5,3,0,6715154,275151756,-3101888436454719010,1360513691.096809,16356,-8320,-6240,nan,0.000000
2,5,3,0,6715154,275151756,-3101888436454716389,1360513691.096809,17084,-5688,-2584,nan,0.000000
2,5,3,0,6715154,275151756,-3101888436454713768,1360513691.096809,12756,-2032,-2208,nan,0.000000
1,5,4,0,6796418,275232384,5831005782886775020,1360513691.098478,13724,-4212,-4572,nan,0.000000
1,5,4,0,6796418,275232384,5831005782886777641,1360513691.098478,12316,-3960,-3784,nan,0.000000
2,5,5,0,6796418,275232416,5831005782886780262,1360513691.098913,13248,-5136,-5484,nan,0.000000
2,5,5,0,6796418,275232416,5831005782886782883,1360513691.098913,13032,-6312,-5780,nan,0.000000
2,5,5,0,6796418,275232416,5831005782886785504,1360513691.098913,14524,-5720,-6760,nan,0.000000
2,5,5,0,6796418,275232416,5831005782886788125,1360513691.098913,18292,-8000,-7716,nan,0.000000
2,5,5,0,6796418,275232416,5831005782886790746,1360513691.098913,16452,-3512,-2340,nan,0.000000
2,5,6,0,6796418,275232448,5831005782886793367,1360513691.100522,12032,-3964,232,nan,0.000000
2,5,6,0,6796418,275232448,5831005782886795988,1360513691.100522,17192,-3976,-3452,nan,0.000000
2,5,6,0,6796418,275232448,5831005782886798609,1360513691.100522,15304,-2928,-3508,nan,0.000000
2,5,6,0,6796418,275232448,5831005782886801230,1360513691.100522,12760,-7008,-2576,nan,0.000000
2,5,6,0,6796418,275232448,5831005782886803851,1360513691.100522,14084,-6728,-4024,nan,0.000000
2,5,7,0,6796418,275232480,5831005782886806472,1360513691.101411,13544,-5992,-4012,nan,0.000000
2,5,7,0,6796418,275232480,5831005782886809093,1360513691.101411,14232,-6868,-4016,nan,0.000000
2,5,7,0,6796418,275232480,5831005782886811714,1360513691.101411,16436,-6452,-3908,nan,0.000000
2,5,7,0,6796418,275232480,5831005782886814335,1360513691.101411,16716,-3688,-3132,nan,0.000000
2,5,7,0,6796418,275232480,5831005782886816956,1360513691.101411,12488,-1544,-864,nan,0.000000
2,5,8,0,6796418,275232512,5831005782886819577,1360513691.102501,16212,-3680,-4596,nan,0.000000
2,5,8,0,6796418,275232512,5831005782886822198,1360513691.102501,16908,-6944,-4004,nan,0.000000
2,5,8,0,6796418,275232512,5831005782886824819,1360513691.102501,13296,-2240,-3552,nan,0.000000
2,5,8,0,6796418,275232512,5831005782886827440,1360513691.102501,15076,-4832,-5060,nan,0.000000
2,5,8,0,6796418,275232512,5831005782886830061,1360513691.102501,14580,-4972,-4772,nan,0.000000
2,5,9,0,6796418,275232544,5831005782886832682,1360513691.103096,14460,-3652,-5260,nan,0.000000
2,5,9,0,6796418,275232544,5831005782886835303,1360513691.103096,14528,-3040,-5248,nan,0.000000
2,5,9,0,6796418,275232544,5831005782886837924,1360513691.103096,14768,-3268,-5584,nan,0.000000
2,5,9,0,6796418,275232544,5831005782886840545,1360513691.103096,14612,-3872,-6444,nan,0.000000
2,5,9,0,6796418,275232544,5831005782886843166,1360513691.103096,16500,-4128,-5944,nan,0.000000
2,5,10,0,6796418,275232576,5831005782886845787,1360513693.578779,17332,-3124,-4576,nan,0.000000
2,5,10,0,6796418,275232576,5831005782886848408,1360513693.578779,13568,-3080,-2496,nan,0.000000
2,5,10,0,6796418,275232576,5831005782886851029,1360513693.578779,14808,-4368,-1404,nan,0.000000
2,5,10,0,6796418,275232576,5831005782886853650,1360513693.578779,15308,-5220,-1768,nan,0.000000
2,5,10,0,6796418,275232576,5831005782886856271,1360513693.578779,16356,-3572,-4048,nan,0.000000
1,5,11,0,6877682,275313670,4681202585262432494,1360513693.579981,13692,-6412,-3684,nan,0.000000
1,5,11,0,6877682,275313670,4681202585262435115,1360513693.579981,14196,-5976,-4376,nan,0.000000
2,5,12,0,6877682,275313702,4681202585262437736,1360513693.580675,13968,-6084,-4456,nan,0.000000
2,5,12,0,6877682,275313702,4681202585262440357,1360513693.580675,14936,-6324,-4824,nan,0.000000
2,5,12,0,6877682,275313702,4681202585262442978,1360513693.580675,15224,-5812,-3560,nan,0.000000
2,5,12,0,6877682,275313702,4681202585262445599,1360513693.580675,13756,-3476,-2344,nan,0.000000
2,5,12,0,6877682,275313702,4681202585262448220,1360513693.580675,14556,-3364,-3308,nan,0.000000
2,5,13,0,6877682,275313734,4681202585262450841,1360513693.581503,15880,-4812,-4672,nan,0.000000
2,5,13,0,6877682,275313734,4681202585262453462,1360513693.581503,15232,-5816,-4020,nan,0.000000
2,5,13,0,6877682,275313734,4681202585262456083,1360513693.581503,14648,-4016,-4668,nan,0.000000
2,5,13,0,6877682,275313734,4681202585262458704,1360513693.581503,15080,-5196,-4068,nan,0.000000
2,5,13,0,6877682,275313734,4681202585262461325,1360513693.581503,14932,-4652,-4540,nan,0.000000
2,5,14,0,6877682,275313766,4681202585262463946,1360513693.582525,14380,-4020,-4668,nan,0.000000
2,5,14,0,6877682,275313766,4681202585262466567,1360513693.582525,14432,-3352,-4936,nan,0.000000
2,5,14,0,6877682,275313766,4681202585262469188,1360513693.582525,14544,-2892,-5340,nan,0.000000
2,5,14,0,6877682,275313766,4681202585262471809,1360513693.582525,14832,-2960,-5508,nan,0.000000
2,5,14,0,6877682,275313766,4681202585262474430,1360513693.582525,14720,-3284,-5684,nan,0.000000
2,5,15,0,6877682,275313798,4681202585262477051,1360513693.583081,20064,-3200,-3072,nan,0.000000
2,5,15,0,6877682,275313798,4681202585262479672,1360513693.583081,14772,-1468,-1912,nan,0.000000
2,5,15,0,6877682,275313798,4681202585262482293,1360513693.583081,14780,-3988,1288,nan,0.000000
2,5,15,0,6877682,275313798,4681202585262484914,1360513693.583081,15896,-4400,-500,nan,0.000000
2,5,15,0,6877682,275313798,4681202585262487535,1360513693.583081,14692,-5568,-1756,nan,0.000000
2,5,0,0,6877682,275313829,4681202585262490156,1360513693.584470,15008,-4284,-2168,nan,0.000000
2,5,0,0,6877682,275313829,4681202585262492777,1360513693.584470,14452,-5188,-2616,nan,0.000000
2,5,0,0,6877682,275313829,4681202585262495398,1360513693.584470,14164,-5440,-2968,nan,0.000000
2,5,0,0,6877682,275313829,4681202585262498019,1360513693.584470,14212,-5576,-3124,nan,0.000000
2,5,0,0,6877682,275313829,4681202585262500640,1360513693.584470,15568,-5192,-3984,nan,0.000000
2,5,1,0,6877682,275313862,4681202585262503261,1360513696.058781,14656,-8212,-4244,nan,0.000000
2,5,1,0,6877682,275313862,4681202585262505882,1360513696.058781,16256,-8604,-3956,nan,0.000000
2,5,1,0,6877682,275313862,4681202585262508503,1360513696.058781,14668,-2240,-1360,nan,0.000000
2,5,1,0,6877682,275313862,4681202585262511124,1360513696.058781,15896,-3104,-3044,nan,0.000000
2,5,1,0,6877682,275313862,4681202585262513745,1360513696.058781,14796,-7544,-3072,nan,0.000000
1,5,2,0,6958946,275394921,-8291016007191925521,1360513696.059912,13552,-3772,-3840,nan,0.000000
1,5,2,0,6958946,275394921,-8291016007191922900,1360513696.059912,13964,-4500,-4660,nan,0.000000
2,5,3,0,6958946,275394953,-8291016007191920279,1360513696.060506,13400,-5452,-4844,nan,0.000000
2,5,3,0,6958946,275394953,-8291016007191917658,1360513696.060506,14520,-5044,-5748,nan,0.000000
2,5,3,0,6958946,275394953,-8291016007191915037,1360513696.060506,14688,-5888,-7052,nan,0.000000
2,5,3,0,6958946,275394953,-8291016007191912416,1360513696.060506,20528,-7136,-4992,nan,0.000000
2,5,3,0,6958946,275394953,-8291016007191909795,1360513696.060506,11988,-2216,-1308,nan,0.000000
2,5,4,0,6958946,275394985,-8291016007191907174,1360513696.061325,15740,-4596,-304,nan,0.000000
2,5,4,0,6958946,275394985,-8291016007191904553,1360513696.061325,15976,-2068,-3704,nan,0.000000
2,5,4,0,6958946,275394985,-8291016007191901932,1360513696.061325,14088,-5724,-3512,nan,0.000000
2,5,4,0,6958946,275394985,-8291016007191899311,1360513696.061325,13664,-5412,-3396,nan,0.000000
2,5,4,0,6958946,275394985,-8291016007191896690,1360513696.061325,13924,-6216,-4104,nan,0.000000
2,5,5,0,6958946,275395017,-8291016007191894069,1360513696.062139,12932,-6144,-4780,nan,0.000000
2,5,5,0,6958946,275395017,-8291016007191891448,1360513696.062139,13028,-7616,-4844,nan,0.000000
2,5,5,0,6958946,275395017,-8291016007191888827,1360513696.062139,14336,-7228,-6144,nan,0.000000
2,5,5,0,6958946,275395017,-8291016007191886206,1360513696.062139,18836,-7976,-4844,nan,0.000000
2,5,5,0,6958946,275395017,-8291016007191883585,1360513696.062139,12232,-3316,-1632,nan,0.000000
2,5,6,0,6958946,275395049,-8291016007191880964,1360513696.063090,14560,-5348,-2936,nan,0.000000
2,5,6,0,6958946,275395049,-8291016007191878343,1360513696.063090,15012,-10124,-3680,nan,0.000000
2,5,6,0,6958946,275395049,-8291016007191875722,1360513696.063090,13220,-5780,-3256,nan,0.000000
2,5,6,0,6958946,275395049,-8291016007191873101,1360513696.063090,14232,-6012,-3164,nan,0.000000
2,5,6,0,6958946,275395049,-8291016007191870480,1360513696.063090,14328,-6204,-4260,nan,0.000000
2,5,7,0,6958946,275395081,-8291016007191867859,1360513696.064148,14356,-5760,-4024,nan,0.000000
2,5,7,0,6958946,275395081,-8291016007191865238,1360513696.064148,13616,-6208,-3588,nan,0.000000
2,5,7,0,6958946,275395081,-8291016007191862617,1360513696.064148,14116,-4804,-4608,nan,0.000000
2,5,7,0,6958946,275395081,-8291016007191859996,1360513696.064148,15376,-5020,-4660,nan,0.000000
2,5,7,0,6958946,275395081,-8291016007191857375,1360513696.064148,16548,-5288,-3240,nan,0.000000
2,5,8,0,6958946,275395113,-8291016007191854754,1360513698.538660,13484,-6188,-1772,nan,0.000000
2,5,8,0,6958946,275395113,-8291016007191852133,1360513698.538660,12780,-7688,-1568,nan,0.000000
2,5,8,0,6958946,275395113,-8291016007191849512,1360513698.538660,15164,-8456,-1612,nan,0.000000
2,5,8,0,6958946,275395113,-8291016007191846891,1360513698.538660,15220,-6484,-2660,nan,0.000000
2,5,8,0,6958946,275395113,-8291016007191844270,1360513698.538660,13848,-6532,-2028,nan,0.000000
1,5,9,0,7040209,275476188,-2235482090798770951,1360513698.539786,14452,-6208,-2176,nan,0.000000
1,5,9,0,7040209,275476188,-2235482090798768330,1360513698.539786,14448,-6732,-1788,nan,0.000000
2,5,10,0,7040209,275476220,-2235482090798765709,1360513698.540441,13900,-7556,-1292,nan,0.000000
2,5,10,0,7040209,275476220,-2235482090798763088,1360513698.540441,14804,-6484,-996,nan,0.000000
2,5,10,0,7040209,275476220,-2235482090798760467,1360513698.540441,15328,-4416,-2616,nan,0.000000
2,5,10,0,7040209,275476220,-2235482090798757846,1360513698.540441,14256,-3596,-3260,nan,0.000000
2,5,10,0,7040209,275476220,-2235482090798755225,1360513698.540441,18252,-5836,-5240,nan,0.000000
2,5,11,0,7040209,275476252,-2235482090798752604,1360513698.541376,14844,-2348,-4332,nan,0.000000
2,5,11,0,7040209,275476252,-2235482090798749983,1360513698.541376,14136,-2688,-3904,nan,0.000000
2,5,11,0,7040209,275476252,-2235482090798747362,1360513698.541376,14912,-4408,-4244,nan,0.000000
2,5,11,0,7040209,275476252,-2235482090798744741,1360513698.541376,14108,-4736,-4076,nan,0.000000
2,5,11,0,7040209,275476252,-2235482090798742120,1360513698.541376,14180,-4776,-4248,nan,0.000000
2,5,12,0,7040209,275476284,-2235482090798739499,1360513698.542258,14268,-4504,-4696,nan,0.000000
2,5,12,0,7040209,275476284,-2235482090798736878,1360513698.542258,14992,-4788,-6036,nan,0.000000
2,5,12,0,7040209,275476284,-2235482090798734257,1360513698.542258,14152,-6084,-6604,nan,0.000000
2,5,12,0,7040209,275476284,-2235482090798731636,1360513698.542258,20684,-5396,-2656,nan,0.000000
2,5,12,0,7040209,275476284,-2235482090798729015,1360513698.542258,12212,-2064,896,nan,0.000000
2,5,13,0,7040209,275476316,-2235482090798726394,1360513698.542826,16968,-3548,-1732,nan,0.000000
2,5,13,0,7040209,275476316,-2235482090798723773,1360513698.542826,14980,-2528,-2656,nan,0.000000
2,5,13,0,7040209,275476316,-2235482090798721152,1360513698.542826,13024,-6656,-2780,nan,0.000000
2,5,13,0,7040209,275476316,-2235482090798718531,1360513698.542826,13836,-6320,-3616,nan,0.000000
2,5,13,0,7040209,275476316,-2235482090798715910,1360513698.542826,13640,-5960,-3788,nan,0.000000
2,5,14,0,7040209,275476348,-2235482090798713289,1360513698.544294,14104,-6068,-3928,nan,0.000000
2,5,14,0,7040209,275476348,-2235482090798710668,1360513698.544294,14044,-8096,-4000,nan,0.000000
2,5,14,0,7040209,275476348,-2235482090798708047,1360513698.544294,19064,-7408,-4852,nan,0.000000
2,5,14,0,7040209,275476348,-2235482090798705426,1360513698.544294,15692,-4176,-1468,nan,0.000000
2,5,14,0,7040209,275476348,-2235482090798702805,1360513698.544294,13332,-16,-1632,nan,0.000000
2,5,15,0,7040209,275476379,-2235482090798700184,1360513701.018645,16500,-8436,-3128,nan,0.000000
2,5,15,0,7040209,275476379,-2235482090798697563,1360513701.018645,14056,-4732,-4064,nan,0.000000
2,5,15,0,7040209,275476379,-2235482090798694942,1360513701.018645,13800,-3900,-3196,nan,0.000000
2,5,15,0,7040209,275476379,-2235482090798692321,1360513701.018645,14120,-4036,-4692,nan,0.000000
2,5,15,0,7040209,275476379,-2235482090798689700,1360513701.018645,13540,-5584,-4804,nan,0.000000
1,5,0,0,7121473,275557458,2373543160962271475,1360513701.019844,14744,-5628,-6684,nan,0.000000
1,5,0,0,7121473,275557458,2373543160962274096,1360513701.019844,20204,-5832,-4672,nan,0.000000
2,5,1,0,7121473,275557490,2373543160962276717,1360513701.020375,12460,-1160,-1544,nan,0.000000
2,5,1,0,7121473,275557490,2373543160962279338,1360513701.020375,17096,-4004,-2676,nan,0.000000
2,5,1,0,7121473,275557490,2373543160962281959,1360513701.020375,14824,-2232,-3560,nan,0.000000
2,5,1,0,7121473,275557490,2373543160962284580,1360513701.020375,13968,-5308,-3268,nan,0.000000
2,5,1,0,7121473,275557490,2373543160962287201,1360513701.020375,14060,-5452,-4220,nan,0.000000
2,5,2,0,7121473,275557522,2373543160962289822,1360513701.021345,13652,-5844,-4952,nan,0.000000
2,5,2,0,7121473,275557522,2373543160962292443,1360513701.021345,13352,-5776,-5500,nan,0.000000
2,5,2,0,7121473,275557522,2373543160962295064,1360513701.021345,13868,-6972,-4720,nan,0.000000
2,5,2,0,7121473,275557522,2373543160962297685,1360513701.021345,13956,-6472,-4992,nan,0.000000
2,5,2,0,7121473,275557522,2373543160962300306,1360513701.021345,18616,-4752,-4564,nan,0.000000
2,5,3,0,7121473,275557554,2373543160962302927,1360513701.022234,14672,-3956,-1860,nan,0.000000
2,5,3,0,7121473,275557554,2373543160962305548,1360513701.022234,14464,-1880,-2820,nan,0.000000
2,5,3,0,7121473,275557554,2373543160962308169,1360513701.022234,15600,-6872,-4664,nan,0.000000
2,5,3,0,7121473,275557554,2373543160962310790,1360513701.022234,14028,-3852,-4148,nan,0.000000
2,5,3,0,7121473,275557554,2373543160962313411,1360513701.022234,14436,-4616,-4344,nan,0.000000
2,5,4,0,7121473,275557586,2373543160962316032,1360513701.023195,14548,-4568,-4812,nan,0.000000
2,5,4,0,7121473,275557586,2373543160962318653,1360513701.023195,14340,-3784,-4604,nan,0.000000
2,5,4,0,7121473,275557586,2373543160962321274,1360513701.023195,14316,-3488,-5268,nan,0.000000
2,5,4,0,7121473,275557586,2373543160962323895,1360513701.023195,14816,-3684,-5532,nan,0.000000
2,5,4,0,7121473,275557586,2373543160962326516,1360513701.023195,14980,-4480,-6836,nan,0.000000
2,5,5,0,7121473,275557618,2373543160962329137,1360513701.024292,17848,-5308,-5756,nan,0.000000
2,5,5,0,7121473,275557618,2373543160962331758,1360513701.024292,15880,-3132,-2900,nan,0.000000
2,5,5,0,7121473,275557618,2373543160962334379,1360513701.024292,12500,-4524,-740,nan,0.000000
2,5,5,0,7121473,275557618,2373543160962337000,1360513701.024292,17136,-3664,-2448,nan,0.000000
2,5,5,0,7121473,275557618,2373543160962339621,1360513701.024292,15412,-3368,-3612,nan,0.000000
2,5,6,0,7121473,275557650,2373543160962342242,1360513703.498514,14320,-4624,-3236,nan,0.000000
2,5,6,0,7121473,275557650,2373543160962344863,1360513703.498514,14812,-5912,-3652,nan,0.000000
2,5,6,0,7121473,275557650,2373543160962347484,1360513703.498514,14392,-5468,-4320,nan,0.000000
2,5,6,0,7121473,275557650,2373543160962350105,1360513703.498514,14072,-6200,-3932,nan,0.000000
2,5,6,0,7121473,275557650,2373543160962352726,1360513703.498514,14044,-6048,-4248,nan,0.000000
1,5,7,0,7202736,275638725,-4831824838367027981,1360513703.499657,15732,-4640,-2892,nan,0.000000
1,5,7,0,7202736,275638725,-4831824838367025360,1360513703.499657,13284,-3480,-2060,nan,0.000000
2,5,8,0,7202736,275638757,-4831824838367022739,1360513703.500258,16228,-3080,-4076,nan,0.000000
2,5,8,0,7202736,275638757,-4831824838367020118,1360513703.500258,15364,-5824,-4084,nan,0.000000
2,5,8,0,7202736,275638757,-4831824838367017497,1360513703.500258,14932,-4460,-3788,nan,0.000000
2,5,8,0,7202736,275638757,-4831824838367014876,1360513703.500258,15036,-4384,-4132,nan,0.000000
2,5,8,0,7202736,275638757,-4831824838367012255,1360513703.500258,14756,-4696,-4612,nan,0.000000
2,5,9,0,7202736,275638789,-4831824838367009634,1360513703.501326,14668,-3728,-4804,nan,0.000000
2,5,9,0,7202736,275638789,-4831824838367007013,1360513703.501326,14808,-2836,-5360,nan,0.000000
2,5,9,0,7202736,275638789,-4831824838367004392,1360513703.501326,15316,-2268,-5612,nan,0.000000
2,5,9,0,7202736,275638789,-4831824838367001771,1360513703.501326,14712,-1452,-5148,nan,0.000000
2,5,9,0,7202736,275638789,-4831824838366999150,1360513703.501326,18984,-4272,-2632,nan,0.000000
2,5,10,0,7202736,275638821,-4831824838366996529,1360513703.502488,14316,-2008,-3220,nan,0.000000
2,5,10,0,7202736,275638821,-4831824838366993908,1360513703.502488,14556,-7048,500,nan,0.000000
2,5,10,0,7202736,275638821,-4831824838366991287,1360513703.502488,15080,-6544,-1008,nan,0.000000
2,5,10,0,7202736,275638821,-4831824838366988666,1360513703.502488,13832,-6432,-1772,nan,0.000000
2,5,10,0,7202736,275638821,-4831824838366986045,1360513703.502488,14404,-5700,-2628,nan,0.000000
2,5,11,0,7202736,275638853,-4831824838366983424,1360513703.503279,14668,-5432,-2864,nan,0.000000
2,5,11,0,7202736,275638853,-4831824838366980803,1360513703.503279,14116,-6316,-3296,nan,0.000000
2,5,11,0,7202736,275638853,-4831824838366978182,1360513703.503279,13856,-6712,-3144,nan,0.000000
2,5,11,0,7202736,275638853,-4831824838366975561,1360513703.503279,14176,-7392,-3384,nan,0.000000
2,5,11,0,7202736,275638853,-4831824838366972940,1360513703.503279,14320,-8420,-4412,nan,0.000000
2,5,12,0,7202736,275638885,-4831824838366970319,1360513703.504229,16320,-8396,-3624,nan,0.000000
2,5,12,0,7202736,275638885,-4831824838366967698,1360513703.504229,16556,-4772,-808,nan,0.000000
2,5,12,0,7202736,275638885,-4831824838366965077,1360513703.504229,13724,-2408,-1540,nan,0.000000
2,5,12,0,7202736,275638885,-4831824838366962456,1360513703.504229,15648,-7868,-2400,nan,0.000000
2,5,12,0,7202736,275638885,-4831824838366959835,1360513703.504229,14108,-4112,-3436,nan,0.000000
1,5,14,0,7284002,275801265,2084903770779931890,1360513708.460391,13048,-4776,-292,nan,0.000000
1,5,14,0,7284002,275801265,2084903770779934511,1360513708.460391,16076,-3048,-3140,nan,0.000000
2,5,15,0,7284002,275801297,2084903770779937132,1360513708.461017,14528,-4940,-2956,nan,0.000000
2,5,15,0,7284002,275801297,2084903770779939753,1360513708.461017,13184,-5908,-2912,nan,0.000000
2,5,15,0,7284002,275801297,2084903770779942374,1360513708.461017,13928,-6292,-3760,nan,0.000000
2,5,15,0,7284002,275801297,2084903770779944995,1360513708.461017,13480,-6052,-3904,nan,0.000000
2,5,15,0,7284002,275801297,2084903770779947616,1360513708.461017,14036,-6812,-3924,nan,0.000000
2,5,0,0,7284002,275801329,2084903770779950237,1360513708.462190,14484,-7152,-5068,nan,0.000000
2,5,0,0,7284002,275801329,2084903770779952858,1360513708.462190,18032,-7668,-3776,nan,0.000000
2,5,0,0,7284002,275801329,2084903770779955479,1360513708.462190,13476,-3916,-1400,nan,0.000000
2,5,0,0,7284002,275801329,2084903770779958100,1360513708.462190,15896,-6096,-3528,nan,0.000000
2,5,0,0,7284002,275801329,2084903770779960721,1360513708.462190,13704,-6984,-2700,nan,0.000000
2,5,1,0,7284002,275801361,2084903770779963342,1360513708.462876,14036,-4672,-3420,nan,0.000000
2,5,1,0,7284002,275801361,2084903770779965963,1360513708.462876,13676,-5168,-3872,nan,0.000000
2,5,1,0,7284002,275801361,2084903770779968584,1360513708.462876,13292,-6084,-3988,nan,0.000000
2,5,1,0,7284002,275801361,2084903770779971205,1360513708.462876,13880,-6584,-4652,nan,0.000000
2,5,1,0,7284002,275801361,2084903770779973826,1360513708.462876,14768,-5424,-5108,nan,0.000000
2,5,2,0,7284002,275801393,2084903770779976447,1360513708.464015,15536,-6252,-6048,nan,0.000000
2,5,2,0,7284002,275801393,2084903770779979068,1360513708.464015,18756,-5932,-1644,nan,0.000000
2,5,2,0,7284002,275801393,2084903770779981689,1360513708.464015,10944,-5092,-1084,nan,0.000000
2,5,2,0,7284002,275801393,2084903770779984310,1360513708.464015,16132,-6168,-1004,nan,0.000000
2,5,2,0,7284002,275801393,2084903770779986931,1360513708.464015,14968,-4796,-3204,nan,0.000000
2,5,3,0,7284002,275801425,2084903770779989552,1360513708.467342,13168,-5984,-2436,nan,0.000000
2,5,3,0,7284002,275801425,2084903770779992173,1360513708.467342,14724,-6340,-2872,nan,0.000000
2,5,3,0,7284002,275801425,2084903770779994794,1360513708.467342,14088,-6368,-3016,nan,0.000000
2,5,3,0,7284002,275801425,2084903770779997415,1360513708.467342,14360,-7108,-3356,nan,0.000000
2,5,3,0,7284002,275801425,2084903770780000036,1360513708.467342,14036,-9020,-3460,nan,0.000000
2,5,4,0,7284002,275801457,2084903770780002657,1360513708.472290,14260,-9504,-3888,nan,0.000000
2,5,4,0,7284002,275801457,2084903770780005278,1360513708.472290,17312,-6220,-4616,nan,0.000000
2,5,4,0,7284002,275801457,2084903770780007899,1360513708.472290,12884,-1900,-1744,nan,0.000000
2,5,4,0,7284002,275801457,2084903770780010520,1360513708.472290,15776,-4268,-4304,nan,0.000000
2,5,4,0,7284002,275801457,2084903770780013141,1360513708.472290,14524,-5784,-4116,nan,0.000000
1,5,5,0,7365268,275801489,-509552275903754000,1360513708.475592,13852,-5028,-4536,nan,0.000000
1,5,5,15,7365268,275801489,-509552275903751379,1360513708.475592,13600,-5264,-4508,nan,0.000000
2,5,6,15,7365268,275801521,-509552275903748758,1360513708.477641,14024,-4720,-5496,nan,0.000000
2,5,6,15,7365268,275801521,-509552275903746137,1360513708.477641,14720,-5132,-6176,nan,0.000000
2,5,6,15,7365268,275801521,-509552275903743516,1360513708.477641,18312,-6368,-6616,nan,0.000000
2,5,6,15,7365268,275801521,-509552275903740895,1360513708.477641,15688,-3964,-1684,nan,0.000000
2,5,6,15,7365268,275801521,-509552275903738274,1360513708.477641,13072,-5484,-116,nan,0.000000
2,5,7,15,7365268,275801552,-509552275903735653,1360513708.480367,16420,-3500,-3084,nan,0.000000
2,5,7,15,7365268,275801552,-509552275903733032,1360513708.480367,13956,-4760,-3248,nan,0.000000
2,5,7,15,7365268,275801552,-509552275903730411,1360513708.480367,12804,-6728,-3432,nan,0.000000
2,5,7,15,7365268,275801552,-509552275903727790,1360513708.480367,13716,-6592,-3964,nan,0.000000
2,5,7,15,7365268,275801552,-509552275903725169,1360513708.480367,13624,-6440,-4024,nan,0.000000
2,5,8,15,7365268,275801585,-509552275903722548,1360513708.486218,13616,-7392,-4816,nan,0.000000
2,5,8,15,7365268,275801585,-509552275903719927,1360513708.486218,18280,-8276,-4560,nan,0.000000
2,5,8,15,7365268,275801585,-509552275903717306,1360513708.486218,13800,-5172,-1728,nan,0.000000
2,5,8,15,7365268,275801585,-509552275903714685,1360513708.486218,12572,-4404,-2172,nan,0.000000
2,5,8,15,7365268,275801585,-509552275903712064,1360513708.486218,17288,-9440,-4212,nan,0.000000
2,5,9,15,7365268,275801617,-509552275903709443,1360513708.488077,13200,-5872,-3136,nan,0.000000
2,5,9,15,7365268,275801617,-509552275903706822,1360513708.488077,14644,-6876,-2280,nan,0.000000
2,5,9,15,7365268,275801617,-509552275903704201,1360513708.488077,14652,-6168,-3472,nan,0.000000
2,5,9,15,7365268,275801617,-509552275903701580,1360513708.488077,14196,-5468,-3360,nan,0.000000
2,5,9,15,7365268,275801617,-509552275903698959,1360513708.488077,13736,-4856,-3492,nan,0.000000
2,5,10,15,7365268,275801649,-509552275903696338,1360513708.490495,16452,-5608,-4308,nan,0.000000
2,5,10,15,7365268,275801649,-509552275903693717,1360513708.490495,13036,-5276,-1732,nan,0.000000
2,5,10,15,7365268,275801649,-509552275903691096,1360513708.490495,13140,-7604,-540,nan,0.000000
2,5,10,15,7365268,275801649,-509552275903688475,1360513708.490495,17008,-5264,-3176,nan,0.000000
2,5,10,15,7365268,275801649,-509552275903685854,1360513708.490495,14396,-6724,-3268,nan,0.000000
2,5,11,15,7365268,275801681,-509552275903683233,1360513710.938316,13768,-7008,-2460,nan,0.000000
2,5,11,15,7365268,275801681,-509552275903680612,1360513710.938316,14248,-7044,-2856,nan,0.000000
2,5,11,15,7365268,275801681,-509552275903677991,1360513710.938316,14432,-8092,-2256,nan,0.000000
2,5,11,15,7365268,275801681,-509552275903675370,1360513710.938316,14140,-8252,-1924,nan,0.000000
2,5,11,15,7365268,275801681,-509552275903672749,1360513710.938316,14464,-9780,-1484,nan,0.000000
1,5,12,0,7446537,275882538,-2813486545683127050,1360513710.939971,14692,-984,-2156,nan,0.000000
1,5,12,1,7446537,275882538,-2813486545683124429,1360513710.939971,15304,-5204,-3968,nan,0.000000
2,5,13,1,7446537,275882570,-2813486545683121808,1360513710.940474,14720,-4920,-4028,nan,0.000000
2,5,13,1,7446537,275882570,-2813486545683119187,1360513710.940474,13792,-4488,-4244,nan,0.000000
2,5,13,1,7446537,275882570,-2813486545683116566,1360513710.940474,13636,-4540,-5356,nan,0.000000
2,5,13,1,7446537,275882570,-2813486545683113945,1360513710.940474,13324,-5248,-4904,nan,0.000000
2,5,13,1,7446537,275882570,-2813486545683111324,1360513710.940474,13872,-4836,-5656,nan,0.000000
2,5,14,1,7446537,275882602,-2813486545683108703,1360513710.942024,14484,-5008,-6264,nan,0.000000
2,5,14,1,7446537,275882602,-2813486545683106082,1360513710.942024,14844,-4888,-7668,nan,0.000000
2,5,14,1,7446537,275882602,-2813486545683103461,1360513710.942024,19324,-5612,-4736,nan,0.000000
2,5,14,1,7446537,275882602,-2813486545683100840,1360513710.942024,11732,-3136,-1016,nan,0.000000
2,5,14,1,7446537,275882602,-2813486545683098219,1360513710.942024,16700,-5648,-2200,nan,0.000000
2,5,15,1,7446537,275882634,-2813486545683095598,1360513710.942880,15328,-1416,-3748,nan,0.000000
2,5,15,1,7446537,275882634,-2813486545683092977,1360513710.942880,12916,-6688,-2872,nan,0.000000
2,5,15,1,7446537,275882634,-2813486545683090356,1360513710.942880,14436,-5176,-4384,nan,0.000000
2,5,15,1,7446537,275882634,-2813486545683087735,1360513710.942880,13568,-5592,-4144,nan,0.000000
2,5,15,1,7446537,275882634,-2813486545683085114,1360513710.942880,13980,-6244,-4280,nan,0.000000
2,5,0,1,7446537,275882666,-2813486545683082493,1360513710.943993,14204,-7216,-5132,nan,0.000000
2,5,0,1,7446537,275882666,-2813486545683079872,1360513710.943993,13500,-8852,-5272,nan,0.000000
2,5,0,1,7446537,275882666,-2813486545683077251,1360513710.943993,20156,-6436,-4760,nan,0.000000
2,5,0,1,7446537,275882666,-2813486545683074630,1360513710.943993,12148,-276,-1116,nan,0.000000
2,5,0,1,7446537,275882666,-2813486545683072009,1360513710.943993,16136,-6988,-4500,nan,0.000000
2,5,1,1,7446537,275882698,-2813486545683069388,1360513710.945482,13932,-6068,-3748,nan,0.000000
2,5,1,1,7446537,275882698,-2813486545683066767,1360513710.945482,13296,-4016,-4552,nan,0.000000
2,5,1,1,7446537,275882698,-2813486545683064146,1360513710.945482,13528,-4724,-4828,nan,0.000000
2,5,1,1,7446537,275882698,-2813486545683061525,1360513710.945482,13556,-5444,-5268,nan,0.000000
2,5,1,1,7446537,275882698,-2813486545683058904,1360513710.945482,14320,-5836,-6284,nan,0.000000
2,5,2,1,7446537,275882730,-2813486545683056283,1360513713.418299,15176,-5308,-7592,nan,0.000000
2,5,2,1,7446537,275882730,-2813486545683053662,1360513713.418299,21184,-6860,-3752,nan,0.000000
2,5,2,1,7446537,275882730,-2813486545683051041,1360513713.418299,10520,-2032,8,nan,0.000000
2,5,2,1,7446537,275882730,-2813486545683048420,1360513713.418299,17036,-4964,-2384,nan,0.000000
2,5,2,1,7446537,275882730,-2813486545683045799,1360513713.418299,14436,-2888,-3944,nan,0.000000
1,5,3,0,7527806,275963812,6408961906103703778,1360513713.419958,13788,-5928,-3944,nan,0.000000
1,5,3,0,7527806,275963812,6408961906103706399,1360513713.419958,13412,-5660,-4352,nan,0.000000
2,5,4,0,7527806,275963844,6408961906103709020,1360513713.420450,13856,-6364,-4388,nan,0.000000
2,5,4,0,7527806,275963844,6408961906103711641,1360513713.420450,13440,-7976,-4872,nan,0.000000
2,5,4,0,7527806,275963844,6408961906103714262,1360513713.420450,19944,-6476,-5964,nan,0.000000
2,5,4,0,7527806,275963844,6408961906103716883,1360513713.420450,12192,-3964,-1456,nan,0.000000
2,5,4,0,7527806,275963844,6408961906103719504,1360513713.420450,15284,-1396,-4460,nan,0.000000
2,5,5,0,7527806,275963875,6408961906103722125,1360513713.421962,15672,-6616,-4064,nan,0.000000
2,5,5,0,7527806,275963875,6408961906103724746,1360513713.421962,14284,-3476,-3816,nan,0.000000
2,5,5,0,7527806,275963875,6408961906103727367,1360513713.421962,14492,-3704,-4772,nan,0.000000
2,5,5,0,7527806,275963875,6408961906103729988,1360513713.421962,14328,-4372,-4892,nan,0.000000
2,5,5,0,7527806,275963875,6408961906103732609,1360513713.421962,14392,-3828,-4732,nan,0.000000
2,5,6,0,7527806,275963908,6408961906103735230,1360513713.422796,14920,-3896,-5140,nan,0.000000
2,5,6,0,7527806,275963908,6408961906103737851,1360513713.422796,15764,-5884,-4716,nan,0.000000
2,5,6,0,7527806,275963908,6408961906103740472,1360513713.422796,16604,-2996,-3644,nan,0.000000
2,5,6,0,7527806,275963908,6408961906103743093,1360513713.422796,14708,-3580,-3516,nan,0.000000
2,5,6,0,7527806,275963908,6408961906103745714,1360513713.422796,14372,-3252,-1932,nan,0.000000
2,5,7,0,7527806,275963939,6408961906103748335,1360513713.423869,16812,-4440,-3076,nan,0.000000
2,5,7,0,7527806,275963939,6408961906103750956,1360513713.423869,14556,-5088,-3816,nan,0.000000
2,5,7,0,7527806,275963939,6408961906103753577,1360513713.423869,14732,-5260,-3452,nan,0.000000
2,5,7,0,7527806,275963939,6408961906103756198,1360513713.423869,14104,-7120,-3232,nan,0.000000
2,5,7,0,7527806,275963939,6408961906103758819,1360513713.423869,14352,-5940,-3772,nan,0.000000
2,5,8,0,7527806,275963972,6408961906103761440,1360513713.424434,14756,-5764,-3208,nan,0.000000
2,5,8,0,7527806,275963972,6408961906103764061,1360513713.424434,13016,-5324,-2844,nan,0.000000
2,5,8,0,7527806,275963972,6408961906103766682,1360513713.424434,16036,-5720,-5360,nan,0.000000
2,5,8,0,7527806,275963972,6408961906103769303,1360513713.424434,14316,-4064,-5584,nan,0.000000
2,5,8,0,7527806,275963972,6408961906103771924,1360513713.424434,14684,-5600,-4496,nan,0.000000
2,5,9,0,7527806,275964003,6408961906103774545,1360513715.900194,14316,-5816,-5180,nan,0.000000
2,5,9,0,7527806,275964003,6408961906103777166,1360513715.900194,13576,-5504,-5308,nan,0.000000
2,5,9,0,7527806,275964003,6408961906103779787,1360513715.900194,14032,-4488,-5716,nan,0.000000
2,5,9,0,7527806,275964003,6408961906103782408,1360513715.900194,14504,-3996,-5752,nan,0.000000
2,5,9,0,7527806,275964003,6408961906103785029,1360513715.900194,15156,-3428,-6720,nan,0.000000
1,5,10,0,7609074,276045085,4966204756754547947,1360513715.901348,19192,-4132,-4092,nan,0.000000
1,5,10,0,7609074,276045085,4966204756754550568,1360513715.901348,12500,-3472,-2780,nan,0.000000
2,5,11,0,7609074,276045117,4966204756754553189,1360513715.901913,15336,-5680,-36,nan,0.000000
2,5,11,0,7609074,276045117,4966204756754555810,1360513715.901913,16028,-3704,-2620,nan,0.000000
2,5,11,0,7609074,276045117,4966204756754558431,1360513715.901913,13592,-5708,-3616,nan,0.000000
2,5,11,0,7609074,276045117,4966204756754561052,1360513715.901913,14024,-5100,-3396,nan,0.000000
2,5,11,0,7609074,276045117,4966204756754563673,1360513715.901913,14264,-5872,-4216,nan,0.000000
2,5,12,0,7609074,276045149,4966204756754566294,1360513715.903322,13880,-6032,-3992,nan,0.000000
2,5,12,0,7609074,276045149,4966204756754568915,1360513715.903322,14224,-6136,-4188,nan,0.000000
2,5,12,0,7609074,276045149,4966204756754571536,1360513715.903322,14704,-7476,-4792,nan,0.000000
2,5,12,0,7609074,276045149,4966204756754574157,1360513715.903322,19108,-7628,-3404,nan,0.000000
2,5,12,0,7609074,276045149,4966204756754576778,1360513715.903322,12740,-2540,-1188,nan,0.000000
2,5,13,0,7609074,276045180,4966204756754579399,1360513715.904375,15544,-5588,-3832,nan,0.000000
2,5,13,0,7609074,276045180,4966204756754582020,1360513715.904375,14416,-7336,-3724,nan,0.000000
2,5,13,0,7609074,276045180,4966204756754584641,1360513715.904375,13828,-4804,-3232,nan,0.000000
2,5,13,0,7609074,276045180,4966204756754587262,1360513715.904375,14296,-4144,-3700,nan,0.000000
2,5,13,0,7609074,276045180,4966204756754589883,1360513715.904375,13912,-4872,-4528,nan,0.000000
2,5,14,0,7609074,276045213,4966204756754592504,1360513715.905265,13568,-5268,-5064,nan,0.000000
2,5,14,0,7609074,276045213,4966204756754595125,1360513715.905265,14200,-6340,-5388,nan,0.000000
2,5,14,0,7609074,276045213,4966204756754597746,1360513715.905265,14772,-5768,-6920,nan,0.000000
2,5,14,0,7609074,276045213,4966204756754600367,1360513715.905265,18900,-7192,-4436,nan,0.000000
2,5,14,0,7609074,276045213,4966204756754602988,1360513715.905265,12780,-2060,-1188,nan,0.000000
2,5,15,0,7609074,276045244,4966204756754605609,1360513715.906135,15800,-5552,-1276,nan,0.000000
2,5,15,0,7609074,276045244,4966204756754608230,1360513715.906135,15128,-2268,-3404,nan,0.000000
2,5,15,0,7609074,276045244,4966204756754610851,1360513715.906135,13440,-6032,-3008,nan,0.000000
2,5,15,0,7609074,276045244,4966204756754613472,1360513715.906135,14372,-5008,-3148,nan,0.000000
2,5,15,0,7609074,276045244,4966204756754616093,1360513715.906135,14020,-5868,-4032,nan,0.000000
2,5,0,0,7609074,276045277,4966204756754618714,1360513718.380149,14216,-6172,-3668,nan,0.000000
2,5,0,0,7609074,276045277,4966204756754621335,1360513718.380149,14540,-6676,-4240,nan,0.000000
2,5,0,0,7609074,276045277,4966204756754623956,1360513718.380149,19148,-7356,-3908,nan,0.000000
2,5,0,0,7609074,276045277,4966204756754626577,1360513718.380149,13836,-3732,-1612,nan,0.000000
2,5,0,0,7609074,276045277,4966204756754629198,1360513718.380149,15512,-3776,-2804,nan,0.000000
1,5,1,0,7690340,276126353,8137983523399707889,1360513718.381288,13472,-4872,-3544,nan,0.000000
1,5,1,0,7690340,276126353,8137983523399710510,1360513718.381288,13884,-4436,-4132,nan,0.000000
2,5,2,0,7690340,276126385,8137983523399713131,1360513718.381833,13620,-5156,-4956,nan,0.000000
2,5,2,0,7690340,276126385,8137983523399715752,1360513718.381833,13296,-5644,-5016,nan,0.000000
2,5,2,0,7690340,276126385,8137983523399718373,1360513718.381833,13892,-5652,-5548,nan,0.000000
2,5,2,0,7690340,276126385,8137983523399720994,1360513718.381833,16856,-7324,-6200,nan,0.000000
2,5,2,0,7690340,276126385,8137983523399723615,1360513718.381833,17632,-3308,-3528,nan,0.000000
2,5,3,0,7690340,276126417,8137983523399726236,1360513718.382785,12160,-3620,-1688,nan,0.000000
2,5,3,0,7690340,276126417,8137983523399728857,1360513718.382785,17100,-3356,-2256,nan,0.000000
2,5,3,0,7690340,276126417,8137983523399731478,1360513718.382785,15152,-3756,-3596,nan,0.000000
2,5,3,0,7690340,276126417,8137983523399734099,1360513718.382785,14832,-3968,-3576,nan,0.000000
2,5,3,0,7690340,276126417,8137983523399736720,1360513718.382785,14408,-5260,-3844,nan,0.000000
2,5,4,0,7690340,276126449,8137983523399739341,1360513718.383763,14224,-5600,-4336,nan,0.000000
2,5,4,0,7690340,276126449,8137983523399741962,1360513718.383763,14376,-5040,-4432,nan,0.000000
2,5,4,0,7690340,276126449,8137983523399744583,1360513718.383763,15196,-6452,-3984,nan,0.000000
2,5,4,0,7690340,276126449,8137983523399747204,1360513718.383763,16476,-1868,-3416,nan,0.000000
2,5,4,0,7690340,276126449,8137983523399749825,1360513718.383763,13924,-4108,-1948,nan,0.000000
2,5,5,0,7690340,276126481,8137983523399752446,1360513718.384707,14952,-4064,-3904,nan,0.000000
2,5,5,0,7690340,276126481,8137983523399755067,1360513718.384707,15608,-5572,-4676,nan,0.000000
2,5,5,0,7690340,276126481,8137983523399757688,1360513718.384707,15580,-4184,-4288,nan,0.000000
2,5,5,0,7690340,276126481,8137983523399760309,1360513718.384707,13744,-3756,-4348,nan,0.000000
2,5,5,0,7690340,276126481,8137983523399762930,1360513718.384707,14324,-4844,-5160,nan,0.000000
2,5,6,0,7690340,276126513,8137983523399765551,1360513718.385813,14552,-3888,-6132,nan,0.000000
2,5,6,0,7690340,276126513,8137983523399768172,1360513718.385813,14160,-3628,-5964,nan,0.000000
2,5,6,0,7690340,276126513,8137983523399770793,1360513718.385813,16532,-3744,-4944,nan,0.000000
2,5,6,0,7690340,276126513,8137983523399773414,1360513718.385813,18048,-2624,-3940,nan,0.000000
2,5,6,0,7690340,276126513,8137983523399776035,1360513718.385813,14128,-2780,-3644,nan,0.000000
1,5,8,0,7771605,276370164,-5695477996438171400,1360513725.821932,14080,-6192,-3396,nan,0.000000
1,5,8,0,7771605,276370164,-5695477996438168779,1360513725.821932,13644,-7640,-4136,nan,0.000000
2,5,9,0,7771605,276370196,-5695477996438166158,1360513725.822833,13256,-7596,-3948,nan,0.000000
2,5,9,0,7771605,276370196,-5695477996438163537,1360513725.822833,14260,-7200,-3692,nan,0.000000
2,5,9,0,7771605,276370196,-5695477996438160916,1360513725.822833,17336,-7208,-3608,nan,0.000000
2,5,9,0,7771605,276370196,-5695477996438158295,1360513725.822833,13992,-4544,-1076,nan,0.000000
2,5,9,0,7771605,276370196,-5695477996438155674,1360513725.822833,15892,-3284,-4596,nan,0.000000
2,5,10,0,7771605,276370228,-5695477996438153053,1360513725.823638,15276,-7328,-3464,nan,0.000000
2,5,10,0,7771605,276370228,-5695477996438150432,1360513725.823638,13540,-3788,-3680,nan,0.000000
2,5,10,0,7771605,276370228,-5695477996438147811,1360513725.823638,14068,-5664,-4848,nan,0.000000
2,5,10,0,7771605,276370228,-5695477996438145190,1360513725.823638,13764,-5144,-5404,nan,0.000000
2,5,10,0,7771605,276370228,-5695477996438142569,1360513725.823638,13512,-4840,-5540,nan,0.000000
2,5,11,0,7771605,276370260,-5695477996438139948,1360513725.824626,13740,-4584,-6404,nan,0.000000
2,5,11,0,7771605,276370260,-5695477996438137327,1360513725.824626,13572,-4912,-6916,nan,0.000000
2,5,11,0,7771605,276370260,-5695477996438134706,1360513725.824626,18088,-6628,-5548,nan,0.000000
2,5,11,0,7771605,276370260,-5695477996438132085,1360513725.824626,16368,-2728,-3952,nan,0.000000
2,5,11,0,7771605,276370260,-5695477996438129464,1360513725.824626,11828,-5004,-664,nan,0.000000
2,5,12,0,7771605,276370291,-5695477996438126843,1360513725.825656,17088,-3496,-3796,nan,0.000000
2,5,12,0,7771605,276370291,-5695477996438124222,1360513725.825656,13812,-4700,-4168,nan,0.000000
2,5,12,0,7771605,276370291,-5695477996438121601,1360513725.825656,13656,-5128,-3340,nan,0.000000
2,5,12,0,7771605,276370291,-5695477996438118980,1360513725.825656,14028,-6136,-3792,nan,0.000000
2,5,12,0,7771605,276370291,-5695477996438116359,1360513725.825656,13908,-5992,-4364,nan,0.000000
2,5,13,0,7771605,276370324,-5695477996438113738,1360513725.826728,13532,-6512,-5048,nan,0.000000
2,5,13,0,7771605,276370324,-5695477996438111117,1360513725.826728,15756,-8556,-4788,nan,0.000000
2,5,13,0,7771605,276370324,-5695477996438108496,1360513725.826728,16932,-7228,-4260,nan,0.000000
2,5,13,0,7771605,276370324,-5695477996438105875,1360513725.826728,12132,-2424,-1872,nan,0.000000
2,5,13,0,7771605,276370324,-5695477996438103254,1360513725.826728,15740,-7740,-4236,nan,0.000000
2,5,14,0,7771605,276370355,-5695477996438100633,1360513725.827556,14408,-7376,-3360,nan,0.000000
2,5,14,0,7771605,276370355,-5695477996438098012,1360513725.827556,14048,-6132,-2116,nan,0.000000
2,5,14,0,7771605,276370355,-5695477996438095391,1360513725.827556,14764,-5400,-4536,nan,0.000000
2,5,14,0,7771605,276370355,-5695477996438092770,1360513725.827556,14008,-5444,-4020,nan,0.000000
2,5,14,0,7771605,276370355,-5695477996438090149,1360513725.827556,13576,-5684,-3628,nan,0.000000
1,5,15,0,7852872,276370388,-4830377880997928718,1360513725.828275,14148,-5324,-984,nan,0.000000
1,5,15,15,7852872,276370388,-4830377880997926097,1360513725.828275,14420,-6640,-544,nan,0.000000
2,5,0,15,7852872,276370419,-4830377880997923476,1360513725.829657,14744,-7364,-2184,nan,0.000000
2,5,0,15,7852872,276370419,-4830377880997920855,1360513725.829657,13604,-7056,-1716,nan,0.000000
2,5,0,15,7852872,276370419,-4830377880997918234,1360513725.829657,14344,-7604,-1264,nan,0.000000
2,5,0,15,7852872,276370419,-4830377880997915613,1360513725.829657,14580,-7040,-2028,nan,0.000000
2,5,0,15,7852872,276370419,-4830377880997912992,1360513725.829657,13828,-7852,-1572,nan,0.000000
2,5,1,15,7852872,276370452,-4830377880997910371,1360513725.830385,14032,-7896,-1256,nan,0.000000
2,5,1,15,7852872,276370452,-4830377880997907750,1360513725.830385,13532,-8232,-1444,nan,0.000000
2,5,1,15,7852872,276370452,-4830377880997905129,1360513725.830385,13100,-9432,-1428,nan,0.000000
2,5,1,15,7852872,276370452,-4830377880997902508,1360513725.830385,13424,-9000,-480,nan,0.000000
2,5,1,15,7852872,276370452,-4830377880997899887,1360513725.830385,19276,-5760,-2624,nan,0.000000
2,5,2,15,7852872,276370483,-4830377880997897266,1360513725.831576,13396,-4900,-2208,nan,0.000000
2,5,2,15,7852872,276370483,-4830377880997894645,1360513725.831576,16184,-2260,-4872,nan,0.000000
2,5,2,15,7852872,276370483,-4830377880997892024,1360513725.831576,14800,-5080,-4764,nan,0.000000
2,5,2,15,7852872,276370483,-4830377880997889403,1360513725.831576,13060,-3804,-4092,nan,0.000000
2,5,2,15,7852872,276370483,-4830377880997886782,1360513725.831576,14888,-4092,-5064,nan,0.000000
2,5,3,15,7852872,276370516,-4830377880997884161,1360513725.832094,13500,-4320,-4940,nan,0.000000
2,5,3,15,7852872,276370516,-4830377880997881540,1360513725.832094,14380,-4100,-5372,nan,0.000000
2,5,3,15,7852872,276370516,-4830377880997878919,1360513725.832094,13940,-3956,-6020,nan,0.000000
2,5,3,15,7852872,276370516,-4830377880997876298,1360513725.832094,14616,-5156,-6032,nan,0.000000
2,5,3,15,7852872,276370516,-4830377880997873677,1360513725.832094,22716,-3340,-3512,nan,0.000000
2,5,4,15,7852872,276370547,-4830377880997871056,1360513725.834008,9432,-2336,-588,nan,0.000000
2,5,4,15,7852872,276370547,-4830377880997868435,1360513725.834008,20352,-2988,-1980,nan,0.000000
2,5,4,15,7852872,276370547,-4830377880997865814,1360513725.834008,13748,-3616,-2424,nan,0.000000
2,5,4,15,7852872,276370547,-4830377880997863193,1360513725.834008,14452,-5040,-2320,nan,0.000000
2,5,4,15,7852872,276370547,-4830377880997860572,1360513725.834008,13804,-6156,-3228,nan,0.000000
2,5,5,15,7852872,276370579,-4830377880997857951,1360513725.834670,13092,-6848,-3508,nan,0.000000
2,5,5,15,7852872,276370579,-4830377880997855330,1360513725.834670,12792,-6812,-4268,nan,0.000000
2,5,5,15,7852872,276370579,-4830377880997852709,1360513725.834670,12532,-8344,-4520,nan,0.000000
2,5,5,15,7852872,276370579,-4830377880997850088,1360513725.834670,13972,-7752,-5456,nan,0.000000
2,5,5,15,7852872,276370579,-4830377880997847467,1360513725.834670,20572,-8096,-3524,nan,0.000000
1,5,6,0,7934138,276370611,6120221357494062322,1360513725.835123,14884,-6448,-1332,nan,0.000000
1,5,6,0,7934138,276370611,6120221357494064943,1360513725.835123,15388,-6808,-1964,nan,0.000000
2,5,7,0,7934138,276370643,6120221357494067564,1360513725.835871,14320,-4004,-2536,nan,0.000000
2,5,7,0,7934138,276370643,6120221357494070185,1360513725.835871,14480,-5292,-2356,nan,0.000000
2,5,7,0,7934138,276370643,6120221357494072806,1360513725.835871,14268,-4940,-3424,nan,0.000000
2,5,7,0,7934138,276370643,6120221357494075427,1360513725.835871,14148,-5016,-3748,nan,0.000000
2,5,7,0,7934138,276370643,6120221357494078048,1360513725.835871,13232,-6560,-4420,nan,0.000000
2,5,8,0,7934138,276370676,6120221357494080669,1360513725.836445,14156,-7200,-5308,nan,0.000000
2,5,8,0,7934138,276370676,6120221357494083290,1360513725.836445,21284,-8508,-1508,nan,0.000000
2,5,8,0,7934138,276370676,6120221357494085911,1360513725.836445,9756,-2196,988,nan,0.000000
2,5,8,0,7934138,276370676,6120221357494088532,1360513725.836445,18388,-5156,-44,nan,0.000000
2,5,8,0,7934138,276370676,6120221357494091153,1360513725.836445,14696,-3968,-2924,nan,0.000000
2,5,9,0,7934138,276370707,6120221357494093774,1360513725.837906,12752,-6084,-1480,nan,0.000000
2,5,9,0,7934138,276370707,6120221357494096395,1360513725.837906,15664,-5440,-2160,nan,0.000000
2,5,9,0,7934138,276370707,6120221357494099016,1360513725.837906,14176,-6096,-2916,nan,0.000000
2,5,9,0,7934138,276370707,6120221357494101637,1360513725.837906,13720,-7456,-2760,nan,0.000000
2,5,9,0,7934138,276370707,6120221357494104258,1360513725.837906,13724,-8172,-3148,nan,0.000000
2,5,10,0,7934138,276370740,6120221357494106879,1360513725.838515,14844,-7508,-3808,nan,0.000000
2,5,10,0,7934138,276370740,6120221357494109500,1360513725.838515,19232,-7160,-2876,nan,0.000000
2,5,10,0,7934138,276370740,6120221357494112121,1360513725.838515,14280,-3384,-328,nan,0.000000
2,5,10,0,7934138,276370740,6120221357494114742,1360513725.838515,15124,-3088,-2432,nan,0.000000
2,5,10,0,7934138,276370740,6120221357494117363,1360513725.838515,15168,-7860,-2776,nan,0.000000
2,5,11,0,7934138,276370771,6120221357494119984,1360513725.839800,13744,-3716,-3648,nan,0.000000
2,5,11,0,7934138,276370771,6120221357494122605,1360513725.839800,13416,-4624,-4136,nan,0.000000
2,5,11,0,7934138,276370771,6120221357494125226,1360513725.839800,13560,-4952,-5180,nan,0.000000
2,5,11,0,7934138,276370771,6120221357494127847,1360513725.839800,13236,-5624,-5232,nan,0.000000
2,5,11,0,7934138,276370771,6120221357494130468,1360513725.839800,14560,-5192,-6192,nan,0.000000
2,5,12,0,7934138,276370803,6120221357494133089,1360513728.299878,17472,-6288,-6168,nan,0.000000
2,5,12,0,7934138,276370803,6120221357494135710,1360513728.299878,18144,-1668,-2160,nan,0.000000
2,5,12,0,7934138,276370803,6120221357494138331,1360513728.299878,13052,-3020,192,nan,0.000000
2,5,12,0,7934138,276370803,6120221357494140952,1360513728.299878,17808,-1472,-1864,nan,0.000000
2,5,12,0,7934138,276370803,6120221357494143573,1360513728.299878,14160,-4076,-1840,nan,0.000000
1,5,13,0,8015398,276451429,-8000788800348952345,1360513728.301527,14296,-5776,-4132,nan,0.000000
1,5,13,0,8015398,276451429,-8000788800348949724,1360513728.301527,14236,-5592,-4096,nan,0.000000
2,5,14,0,8015398,276451461,-8000788800348947103,1360513728.303698,14760,-6648,-3772,nan,0.000000
2,5,14,0,8015398,276451461,-8000788800348944482,1360513728.303698,17332,-6036,-3700,nan,0.000000
2,5,14,0,8015398,276451461,-8000788800348941861,1360513728.303698,16924,-2240,-272,nan,0.000000
2,5,14,0,8015398,276451461,-8000788800348939240,1360513728.303698,14708,-2544,-1092,nan,0.000000
2,5,14,0,8015398,276451461,-8000788800348936619,1360513728.303698,15368,-7224,-2348,nan,0.000000
2,5,15,0,8015398,276451492,-8000788800348933998,1360513728.304322,14040,-3984,-3032,nan,0.000000
2,5,15,0,8015398,276451492,-8000788800348931377,1360513728.304322,14212,-4288,-2648,nan,0.000000
2,5,15,0,8015398,276451492,-8000788800348928756,1360513728.304322,14132,-4752,-5092,nan,0.000000
2,5,15,0,8015398,276451492,-8000788800348926135,1360513728.304322,14164,-5072,-5356,nan,0.000000
2,5,15,0,8015398,276451492,-8000788800348923514,1360513728.304322,16156,-3224,-6276,nan,0.000000
2,5,0,0,8015398,276451524,-8000788800348920893,1360513728.304832,21404,-5016,-3420,nan,0.000000
2,5,0,0,8015398,276451524,-8000788800348918272,1360513728.304832,11948,-2336,664,nan,0.000000
2,5,0,0,8015398,276451524,-8000788800348915651,1360513728.304832,16796,-3692,-312,nan,0.000000
2,5,0,0,8015398,276451524,-8000788800348913030,1360513728.304832,15588,-3304,-1692,nan,0.000000
2,5,0,0,8015398,276451524,-8000788800348910409,1360513728.304832,14344,-4948,-1960,nan,0.000000
2,5,1,0,8015398,276451556,-8000788800348907788,1360513728.305685,14204,-5556,-2760,nan,0.000000
2,5,1,0,8015398,276451556,-8000788800348905167,1360513728.305685,14080,-5924,-3920,nan,0.000000
2,5,1,0,8015398,276451556,-8000788800348902546,1360513728.305685,13556,-6620,-3472,nan,0.000000
2,5,1,0,8015398,276451556,-8000788800348899925,1360513728.305685,15732,-6284,-4488,nan,0.000000
2,5,1,0,8015398,276451556,-8000788800348897304,1360513728.305685,15684,-5024,-2584,nan,0.000000
2,5,2,0,8015398,276451589,-8000788800348894683,1360513728.306256,15232,-1712,-1160,nan,0.000000
2,5,2,0,8015398,276451589,-8000788800348892062,1360513728.306256,16544,-1752,-1448,nan,0.000000
2,5,2,0,8015398,276451589,-8000788800348889441,1360513728.306256,16304,-4620,-2852,nan,0.000000
2,5,2,0,8015398,276451589,-8000788800348886820,1360513728.306256,15176,-4176,-2704,nan,0.000000
2,5,2,0,8015398,276451589,-8000788800348884199,1360513728.306256,15008,-4140,-2656,nan,0.000000
2,5,3,0,8015398,276451620,-8000788800348881578,1360513730.781863,15468,-3404,-2936,nan,0.000000
2,5,3,0,8015398,276451620,-8000788800348878957,1360513730.781863,15856,-3236,-3316,nan,0.000000
2,5,3,0,8015398,276451620,-8000788800348876336,1360513730.781863,14980,-3900,-3764,nan,0.000000
2,5,3,0,8015398,276451620,-8000788800348873715,1360513730.781863,14600,-3352,-4556,nan,0.000000
2,5,3,0,8015398,276451620,-8000788800348871094,1360513730.781863,14840,-2780,-5348,nan,0.000000
1,5,4,0,8096656,276532726,933191750573197556,1360513730.783046,15164,-1724,-5468,nan,0.000000
1,5,4,0,8096656,276532726,933191750573200177,1360513730.783046,18212,-3696,-4576,nan,0.000000
2,5,5,0,8096656,276532757,933191750573202798,1360513730.783539,13992,-3876,-2460,nan,0.000000
2,5,5,0,8096656,276532757,933191750573205419,1360513730.783539,15696,-5600,-876,nan,0.000000
2,5,5,0,8096656,276532757,933191750573208040,1360513730.783539,15216,-5376,-2716,nan,0.000000
2,5,5,0,8096656,276532757,933191750573210661,1360513730.783539,13160,-6460,-2292,nan,0.000000
2,5,5,0,8096656,276532757,933191750573213282,1360513730.783539,14508,-5336,-2616,nan,0.000000
2,5,6,0,8096656,276532790,933191750573215903,1360513730.784397,13876,-5612,-3676,nan,0.000000
2,5,6,0,8096656,276532790,933191750573218524,1360513730.784397,14336,-5484,-3252,nan,0.000000
2,5,6,0,8096656,276532790,933191750573221145,1360513730.784397,15040,-6920,-4636,nan,0.000000
2,5,6,0,8096656,276532790,933191750573223766,1360513730.784397,15536,-7112,-5224,nan,0.000000
2,5,6,0,8096656,276532790,933191750573226387,1360513730.784397,17980,-6744,-2244,nan,0.000000
2,5,7,0,8096656,276532821,933191750573229008,1360513730.785477,13588,-1320,-940,nan,0.000000
2,5,7,0,8096656,276532821,933191750573231629,1360513730.785477,15388,-7828,-2876,nan,0.000000
2,5,7,0,8096656,276532821,933191750573234250,1360513730.785477,14356,-4788,-3116,nan,0.000000
2,5,7,0,8096656,276532821,933191750573236871,1360513730.785477,13872,-4392,-2744,nan,0.000000
2,5,7,0,8096656,276532821,933191750573239492,1360513730.785477,14096,-4756,-3936,nan,0.000000
2,5,8,0,8096656,276532854,933191750573242113,1360513730.786108,13888,-5444,-4220,nan,0.000000
2,5,8,0,8096656,276532854,933191750573244734,1360513730.786108,14628,-6336,-5044,nan,0.000000
2,5,8,0,8096656,276532854,933191750573247355,1360513730.786108,14628,-6516,-5888,nan,0.000000
2,5,8,0,8096656,276532854,933191750573249976,1360513730.786108,19020,-5948,-2704,nan,0.000000
2,5,8,0,8096656,276532854,933191750573252597,1360513730.786108,12384,-2544,604,nan,0.000000
2,5,9,0,8096656,276532885,933191750573255218,1360513730.787514,16856,-4108,-1968,nan,0.000000
2,5,9,0,8096656,276532885,933191750573257839,1360513730.787514,14660,-3852,-2848,nan,0.000000
2,5,9,0,8096656,276532885,933191750573260460,1360513730.787514,12828,-5340,-2172,nan,0.000000
2,5,9,0,8096656,276532885,933191750573263081,1360513730.787514,14320,-6016,-3308,nan,0.000000
2,5,9,0,8096656,276532885,933191750573265702,1360513730.787514,14272,-5928,-3656,nan,0.000000
2,5,10,0,8096656,276532918,933191750573268323,1360513733.259763,15132,-6716,-3772,nan,0.000000
2,5,10,0,8096656,276532918,933191750573270944,1360513733.259763,17116,-8336,-3656,nan,0.000000
2,5,10,0,8096656,276532918,933191750573273565,1360513733.259763,17276,-1580,-972,nan,0.000000
2,5,10,0,8096656,276532918,933191750573276186,1360513733.259763,14500,-2012,-1304,nan,0.000000
2,5,10,0,8096656,276532918,933191750573278807,1360513733.259763,16044,-6232,-2248,nan,0.000000
1,5,11,0,8177914,276613953,-5120187194568194831,1360513733.261497,14424,-3300,-3400,nan,0.000000
1,5,11,0,8177914,276613953,-5120187194568192210,1360513733.261497,14560,-4296,-4884,nan,0.000000
2,5,12,0,8177914,276613985,-5120187194568189589,1360513733.262093,14052,-4480,-4928,nan,0.000000
2,5,12,0,8177914,276613985,-5120187194568186968,1360513733.262093,14972,-3956,-5860,nan,0.000000
2,5,12,0,8177914,276613985,-5120187194568184347,1360513733.262093,21048,-5472,-4804,nan,0.000000
2,5,12,0,8177914,276613985,-5120187194568181726,1360513733.262093,14244,-2084,-1340,nan,0.000000
2,5,12,0,8177914,276613985,-5120187194568179105,1360513733.262093,14084,-2352,1220,nan,0.000000
2,5,13,0,8177914,276614017,-5120187194568176484,1360513733.263460,17672,-3752,-1784,nan,0.000000
2,5,13,0,8177914,276614017,-5120187194568173863,1360513733.263460,14148,-5552,-1648,nan,0.000000
2,5,13,0,8177914,276614017,-5120187194568171242,1360513733.263460,14600,-4420,-1896,nan,0.000000
2,5,13,0,8177914,276614017,-5120187194568168621,1360513733.263460,14188,-7120,-3172,nan,0.000000
2,5,13,0,8177914,276614017,-5120187194568166000,1360513733.263460,13000,-6152,-3888,nan,0.000000
2,5,14,0,8177914,276614049,-5120187194568163379,1360513733.264576,13812,-8532,-4624,nan,0.000000
2,5,14,0,8177914,276614049,-5120187194568160758,1360513733.264576,13596,-7220,-5428,nan,0.000000
2,5,14,0,8177914,276614049,-5120187194568158137,1360513733.264576,16016,-5888,-5560,nan,0.000000
2,5,14,0,8177914,276614049,-5120187194568155516,1360513733.264576,15932,-3716,-1356,nan,0.000000
2,5,14,0,8177914,276614049,-5120187194568152895,1360513733.264576,14096,-1112,-2384,nan,0.000000
2,5,15,0,8177914,276614081,-5120187194568150274,1360513733.265431,16480,-8800,-3964,nan,0.000000
2,5,15,0,8177914,276614081,-5120187194568147653,1360513733.265431,13804,-4940,-3760,nan,0.000000
2,5,15,0,8177914,276614081,-5120187194568145032,1360513733.265431,13968,-4168,-3320,nan,0.000000
2,5,15,0,8177914,276614081,-5120187194568142411,1360513733.265431,14928,-5280,-4676,nan,0.000000
2,5,15,0,8177914,276614081,-5120187194568139790,1360513733.265431,14180,-4304,-4544,nan,0.000000
2,5,0,0,8177914,276614113,-5120187194568137169,1360513733.266253,18592,-3620,-2912,nan,0.000000
2,5,0,0,8177914,276614113,-5120187194568134548,1360513733.266253,15168,-3424,-1676,nan,0.000000
2,5,0,0,8177914,276614113,-5120187194568131927,1360513733.266253,15028,-3028,168,nan,0.000000
2,5,0,0,8177914,276614113,-5120187194568129306,1360513733.266253,17388,-2440,-236,nan,0.000000
2,5,0,0,8177914,276614113,-5120187194568126685,1360513733.266253,15896,-5504,-884,nan,0.000000
2,5,1,0,8177914,276614145,-5120187194568124064,1360513735.739755,14764,-3880,-880,nan,0.000000
2,5,1,0,8177914,276614145,-5120187194568121443,1360513735.739755,15224,-3788,-348,nan,0.000000
2,5,1,0,8177914,276614145,-5120187194568118822,1360513735.739755,15540,-4312,-568,nan,0.000000
2,5,1,0,8177914,276614145,-5120187194568116201,1360513735.739755,14060,-4652,-1116,nan,0.000000
2,5,1,0,8177914,276614145,-5120187194568113580,1360513735.739755,17272,-5196,-3540,nan,0.000000
1,5,2,0,8259172,276695215,-6557745795695931140,1360513735.741361,13956,-4772,-3376,nan,0.000000
1,5,2,0,8259172,276695215,-6557745795695928519,1360513735.741361,15212,-5452,-4016,nan,0.000000
2,5,3,0,8259172,276695247,-6557745795695925898,1360513735.741747,14852,-4012,-4276,nan,0.000000
2,5,3,0,8259172,276695247,-6557745795695923277,1360513735.741747,14196,-3688,-4320,nan,0.000000
2,5,3,0,8259172,276695247,-6557745795695920656,1360513735.741747,14556,-3760,-4832,nan,0.000000
2,5,3,0,8259172,276695247,-6557745795695918035,1360513735.741747,15084,-3836,-5620,nan,0.000000
2,5,3,0,8259172,276695247,-6557745795695915414,1360513735.741747,15460,-2696,-5340,nan,0.000000
2,5,4,0,8259172,276695279,-6557745795695912793,1360513735.743414,17400,-2868,-3548,nan,0.000000
2,5,4,0,8259172,276695279,-6557745795695910172,1360513735.743414,17316,-812,-2388,nan,0.000000
2,5,4,0,8259172,276695279,-6557745795695907551,1360513735.743414,12940,-7656,840,nan,0.000000
2,5,4,0,8259172,276695279,-6557745795695904930,1360513735.743414,15944,-4972,-1932,nan,0.000000
2,5,4,0,8259172,276695279,-6557745795695902309,1360513735.743414,13544,-6708,-2144,nan,0.000000
2,5,5,0,8259172,276695311,-6557745795695899688,1360513735.744215,13852,-5588,-2652,nan,0.000000
2,5,5,0,8259172,276695311,-6557745795695897067,1360513735.744215,14416,-6292,-2884,nan,0.000000
2,5,5,0,8259172,276695311,-6557745795695894446,1360513735.744215,13940,-6828,-3204,nan,0.000000
2,5,5,0,8259172,276695311,-6557745795695891825,1360513735.744215,14620,-7248,-3340,nan,0.000000
2,5,5,0,8259172,276695311,-6557745795695889204,1360513735.744215,14532,-8684,-4160,nan,0.000000
2,5,6,0,8259172,276695343,-6557745795695886583,1360513735.745339,16600,-8492,-3844,nan,0.000000
2,5,6,0,8259172,276695343,-6557745795695883962,1360513735.745339,15804,-3088,784,nan,0.000000
2,5,6,0,8259172,276695343,-6557745795695881341,1360513735.745339,15604,-3052,-1888,nan,0.000000
2,5,6,0,8259172,276695343,-6557745795695878720,1360513735.745339,14716,-8028,-1832,nan,0.000000
2,5,6,0,8259172,276695343,-6557745795695876099,1360513735.745339,13996,-3652,-2828,nan,0.000000
2,5,7,0,8259172,276695375,-6557745795695873478,1360513735.745885,13688,-4392,-3572,nan,0.000000
2,5,7,0,8259172,276695375,-6557745795695870857,1360513735.745885,13868,-5256,-4576,nan,0.000000
2,5,7,0,8259172,276695375,-6557745795695868236,1360513735.745885,14240,-5940,-5032,nan,0.000000
2,5,7,0,8259172,276695375,-6557745795695865615,1360513735.745885,15984,-5224,-6448,nan,0.000000
2,5,7,0,8259172,276695375,-6557745795695862994,1360513735.745885,19260,-6948,-3000,nan,0.000000
1,5,9,0,8340429,276857738,7564144039700915200,1360513740.701590,14912,-7248,-4180,nan,0.000000
1,5,9,0,8340429,276857738,7564144039700917821,1360513740.701590,16888,-9644,-5048,nan,0.000000
2,5,10,0,8340429,276857770,7564144039700920442,1360513740.702431,17188,-4240,-180,nan,0.000000
2,5,10,0,8340429,276857770,7564144039700923063,1360513740.702431,14352,-2032,-1252,nan,0.000000
2,5,10,0,8340429,276857770,7564144039700925684,1360513740.702431,15500,-8920,-1992,nan,0.000000
2,5,10,0,8340429,276857770,7564144039700928305,1360513740.702431,14024,-4136,-3040,nan,0.000000
2,5,10,0,8340429,276857770,7564144039700930926,1360513740.702431,13428,-4344,-2956,nan,0.000000
2,5,11,0,8340429,276857802,7564144039700933547,1360513740.703277,13816,-5024,-4464,nan,0.000000
2,5,11,0,8340429,276857802,7564144039700936168,1360513740.703277,13664,-6488,-4752,nan,0.000000
2,5,11,0,8340429,276857802,7564144039700938789,1360513740.703277,14836,-5596,-5628,nan,0.000000
2,5,11,0,8340429,276857802,7564144039700941410,1360513740.703277,18148,-8292,-4360,nan,0.000000
2,5,11,0,8340429,276857802,7564144039700944031,1360513740.703277,14688,-2600,504,nan,0.000000
2,5,12,0,8340429,276857834,7564144039700946652,1360513740.704483,14656,-6964,472,nan,0.000000
2,5,12,0,8340429,276857834,7564144039700949273,1360513740.704483,15580,-3096,-2100,nan,0.000000
2,5,12,0,8340429,276857834,7564144039700951894,1360513740.704483,13176,-7268,-1144,nan,0.000000
2,5,12,0,8340429,276857834,7564144039700954515,1360513740.704483,13968,-7240,-1328,nan,0.000000
2,5,12,0,8340429,276857834,7564144039700957136,1360513740.704483,14008,-7044,-1864,nan,0.000000
2,5,13,0,8340429,276857866,7564144039700959757,1360513740.705254,13668,-7296,-2060,nan,0.000000
2,5,13,0,8340429,276857866,7564144039700962378,1360513740.705254,13652,-8416,-2276,nan,0.000000
2,5,13,0,8340429,276857866,7564144039700964999,1360513740.705254,13960,-9316,-2776,nan,0.000000
2,5,13,0,8340429,276857866,7564144039700967620,1360513740.705254,14844,-9332,-3596,nan,0.000000
2,5,13,0,8340429,276857866,7564144039700970241,1360513740.705254,18552,-3800,-2016,nan,0.000000
2,5,14,0,8340429,276857898,7564144039700972862,1360513740.706815,14692,-740,-1748,nan,0.000000
2,5,14,0,8340429,276857898,7564144039700975483,1360513740.706815,14976,-7928,-2348,nan,0.000000
2,5,14,0,8340429,276857898,7564144039700978104,1360513740.706815,14712,-4368,-2980,nan,0.000000
2,5,14,0,8340429,276857898,7564144039700980725,1360513740.706815,13732,-4580,-2744,nan,0.000000
2,5,14,0,8340429,276857898,7564144039700983346,1360513740.706815,13904,-5492,-4124,nan,0.000000
2,5,15,0,8340429,276857930,7564144039700985967,1360513740.707681,13656,-5536,-4276,nan,0.000000
2,5,15,0,8340429,276857930,7564144039700988588,1360513740.707681,15372,-4640,-5628,nan,0.000000
2,5,15,0,8340429,276857930,7564144039700991209,1360513740.707681,17500,-6276,-5892,nan,0.000000
2,5,15,0,8340429,276857930,7564144039700993830,1360513740.707681,16368,-3788,-2032,nan,0.000000
2,5,15,0,8340429,276857930,7564144039700996451,1360513740.707681,12884,-5452,232,nan,0.000000
1,5,0,0,8421686,276857962,354342829419154671,1360513740.708307,13988,-4864,-2984,nan,0.000000
