type,ID,seq,packetLoss,nodeTimestamp,bsTimestamp,syncTimestamp,systemTime,accelX,accelY,accelZ,cannula,voltage
1,5,2,0,4572871,147269048,-4830026011439900422,1360546914.651845,17140,-4216,-2576,nan,0.000000
1,5,2,0,4572871,147269048,-4830026011439897801,1360546914.651845,15192,-4904,-1764,nan,0.000000
2,5,3,0,4572871,147269079,-4830026011439895180,1360546914.652050,14712,-3536,-2048,nan,0.000000
2,5,3,0,4572871,147269079,-4830026011439892559,1360546914.652050,14968,-2492,-1540,nan,0.000000
2,5,3,0,4572871,147269079,-4830026011439889938,1360546914.652050,15848,-1752,-2344,nan,0.000000
2,5,3,0,4572871,147269079,-4830026011439887317,1360546914.652050,17504,-6972,-2388,nan,0.000000
2,5,3,0,4572871,147269079,-4830026011439884696,1360546914.652050,14432,-2208,-2036,nan,0.000000
2,5,4,0,4572871,147269111,-4830026011439882075,1360546914.652274,14912,-2172,-2460,nan,0.000000
2,5,4,0,4572871,147269111,-4830026011439879454,1360546914.652274,15652,-3824,-2200,nan,0.000000
2,5,4,0,4572871,147269111,-4830026011439876833,1360546914.652274,14896,-3932,-2444,nan,0.000000
2,5,4,0,4572871,147269111,-4830026011439874212,1360546914.652274,14832,-3708,-2872,nan,0.000000
2,5,4,0,4572871,147269111,-4830026011439871591,1360546914.652274,15316,-3908,-3172,nan,0.000000
2,5,5,0,4572871,147269143,-4830026011439868970,1360546914.652495,15608,-4872,-3464,nan,0.000000
2,5,5,0,4572871,147269143,-4830026011439866349,1360546914.652495,18804,-3188,-1580,nan,0.000000
2,5,5,0,4572871,147269143,-4830026011439863728,1360546914.652495,15536,-1604,-796,nan,0.000000
2,5,5,0,4572871,147269143,-4830026011439861107,1360546914.652495,14668,-2520,332,nan,0.000000
2,5,5,0,4572871,147269143,-4830026011439858486,1360546914.652495,15532,-1616,1104,nan,0.000000
2,5,6,0,4572871,147269174,-4830026011439855865,1360546914.652767,18136,-1596,-860,nan,0.000000
2,5,6,0,4572871,147269174,-4830026011439853244,1360546914.652767,15076,-2504,-472,nan,0.000000
2,5,6,0,4572871,147269174,-4830026011439850623,1360546914.652767,14452,-4688,-620,nan,0.000000
2,5,6,0,4572871,147269174,-4830026011439848002,1360546914.652767,15668,-4408,-1964,nan,0.000000
2,5,6,0,4572871,147269174,-4830026011439845381,1360546914.652767,15156,-4508,-2096,nan,0.000000
2,5,7,0,4572871,147269206,-4830026011439842760,1360546914.653007,14740,-5544,-1776,nan,0.000000
2,5,7,0,4572871,147269206,-4830026011439840139,1360546914.653007,15340,-5880,-1028,nan,0.000000
2,5,7,0,4572871,147269206,-4830026011439837518,1360546914.653007,17724,-1784,-2496,nan,0.000000
2,5,7,0,4572871,147269206,-4830026011439834897,1360546914.653007,14732,-3192,-1388,nan,0.000000
2,5,7,0,4572871,147269206,-4830026011439832276,1360546914.653007,15068,-2200,-904,nan,0.000000
2,5,8,0,4572871,147269238,-4830026011439829655,1360546914.653251,16300,-1672,-2340,nan,0.000000
2,5,8,0,4572871,147269238,-4830026011439827034,1360546914.653251,16052,-2408,-2536,nan,0.000000
2,5,8,0,4572871,147269238,-4830026011439824413,1360546914.653251,15948,-2468,-2364,nan,0.000000
2,5,8,0,4572871,147269238,-4830026011439821792,1360546914.653251,15540,-1052,-1756,nan,0.000000
2,5,8,0,4572871,147269238,-4830026011439819171,1360546914.653251,15772,-1984,-1304,nan,0.000000
1,5,9,0,4654128,147350308,1798793286534487286,1360546914.653505,16016,-2700,-1344,nan,0.000000
1,5,9,0,4654128,147350308,1798793286534489907,1360546914.653505,15988,-2800,-1200,nan,0.000000
2,5,10,0,4654128,147350339,1798793286534492528,1360546914.653621,15640,-2612,-1592,nan,0.000000
2,5,10,0,4654128,147350339,1798793286534495149,1360546914.653621,15784,-2276,-1780,nan,0.000000
2,5,10,0,4654128,147350339,1798793286534497770,1360546914.653621,15736,-1852,-1804,nan,0.000000
2,5,10,0,4654128,147350339,1798793286534500391,1360546914.653621,15720,-2008,-2036,nan,0.000000
2,5,10,0,4654128,147350339,1798793286534503012,1360546914.653621,15756,-2080,-2700,nan,0.000000
2,5,11,0,4654128,147350371,1798793286534505633,1360546914.653853,16400,-3112,-2708,nan,0.000000
2,5,11,0,4654128,147350371,1798793286534508254,1360546914.653853,16404,-3108,-708,nan,0.000000
2,5,11,0,4654128,147350371,1798793286534510875,1360546914.653853,15632,-1764,-540,nan,0.000000
2,5,11,0,4654128,147350371,1798793286534513496,1360546914.653853,16468,-2676,540,nan,0.000000
2,5,11,0,4654128,147350371,1798793286534516117,1360546914.653853,15072,-3648,-220,nan,0.000000
2,5,12,0,4654128,147350403,1798793286534518738,1360546914.654130,15520,-4532,-556,nan,0.000000
2,5,12,0,4654128,147350403,1798793286534521359,1360546914.654130,15236,-4724,-292,nan,0.000000
2,5,12,0,4654128,147350403,1798793286534523980,1360546914.654130,15472,-4184,-980,nan,0.000000
2,5,12,0,4654128,147350403,1798793286534526601,1360546914.654130,15508,-4436,-1148,nan,0.000000
2,5,12,0,4654128,147350403,1798793286534529222,1360546914.654130,15120,-4888,-1408,nan,0.000000
2,5,13,0,4654128,147350434,1798793286534531843,1360546914.654365,15140,-5280,-1392,nan,0.000000
2,5,13,0,4654128,147350434,1798793286534534464,1360546914.654365,14968,-5192,-1592,nan,0.000000
2,5,13,0,4654128,147350434,1798793286534537085,1360546914.654365,15060,-4948,-1592,nan,0.000000
2,5,13,0,4654128,147350434,1798793286534539706,1360546914.654365,15344,-4604,-1584,nan,0.000000
2,5,13,0,4654128,147350434,1798793286534542327,1360546914.654365,14980,-4692,-1648,nan,0.000000
2,5,14,0,4654128,147350466,1798793286534544948,1360546914.654597,15224,-5160,-1296,nan,0.000000
2,5,14,0,4654128,147350466,1798793286534547569,1360546914.654597,14908,-4712,-1132,nan,0.000000
2,5,14,0,4654128,147350466,1798793286534550190,1360546914.654597,15128,-4324,-600,nan,0.000000
2,5,14,0,4654128,147350466,1798793286534552811,1360546914.654597,15400,-2796,-224,nan,0.000000
2,5,14,0,4654128,147350466,1798793286534555432,1360546914.654597,16708,-576,1200,nan,0.000000
2,5,15,0,4654128,147350498,1798793286534558053,1360546914.654842,16324,1204,1680,nan,0.000000
2,5,15,0,4654128,147350498,1798793286534560674,1360546914.654842,16000,1808,3596,nan,0.000000
2,5,15,0,4654128,147350498,1798793286534563295,1360546914.654842,15560,2928,2320,nan,0.000000
2,5,15,0,4654128,147350498,1798793286534565916,1360546914.654842,15152,4476,4184,nan,0.000000
2,5,15,0,4654128,147350498,1798793286534568537,1360546914.654842,14336,6072,4032,nan,0.000000
1,5,0,0,4735382,147431585,868649402531483654,1360546914.655100,13328,7320,6364,nan,0.000000
1,5,0,0,4735382,147431585,868649402531486275,1360546914.655100,12368,7460,7240,nan,0.000000
2,5,1,0,4735382,147431616,868649402531488896,1360546914.655212,12040,7544,7840,nan,0.000000
2,5,1,0,4735382,147431616,868649402531491517,1360546914.655212,11432,8000,8584,nan,0.000000
2,5,1,0,4735382,147431616,868649402531494138,1360546914.655212,11104,8532,9016,nan,0.000000
2,5,1,0,4735382,147431616,868649402531496759,1360546914.655212,10556,9180,9336,nan,0.000000
2,5,1,0,4735382,147431616,868649402531499380,1360546914.655212,10604,8844,9468,nan,0.000000
2,5,2,0,4735382,147431648,868649402531502001,1360546914.655443,10452,8808,9880,nan,0.000000
2,5,2,0,4735382,147431648,868649402531504622,1360546914.655443,10028,8640,10140,nan,0.000000
2,5,2,0,4735382,147431648,868649402531507243,1360546914.655443,9936,8812,10088,nan,0.000000
2,5,2,0,4735382,147431648,868649402531509864,1360546914.655443,9780,8724,10104,nan,0.000000
2,5,2,0,4735382,147431648,868649402531512485,1360546914.655443,9860,8544,10256,nan,0.000000
2,5,3,0,4735382,147431680,868649402531515106,1360546914.655674,9852,8332,9972,nan,0.000000
2,5,3,0,4735382,147431680,868649402531517727,1360546914.655674,9952,8216,10152,nan,0.000000
2,5,3,0,4735382,147431680,868649402531520348,1360546914.655674,10168,8444,10084,nan,0.000000
2,5,3,0,4735382,147431680,868649402531522969,1360546914.655674,10084,8488,10112,nan,0.000000
2,5,3,0,4735382,147431680,868649402531525590,1360546914.655674,10140,8264,10308,nan,0.000000
2,5,4,0,4735382,147431712,868649402531528211,1360546914.655906,9992,8292,10340,nan,0.000000
2,5,4,0,4735382,147431712,868649402531530832,1360546914.655906,9728,8244,10412,nan,0.000000
2,5,4,0,4735382,147431712,868649402531533453,1360546914.655906,9780,8480,10432,nan,0.000000
2,5,4,0,4735382,147431712,868649402531536074,1360546914.655906,9716,8288,10364,nan,0.000000
2,5,4,0,4735382,147431712,868649402531538695,1360546914.655906,9788,8324,10576,nan,0.000000
2,5,5,0,4735382,147431743,868649402531541316,1360546914.656161,9600,8468,10396,nan,0.000000
2,5,5,0,4735382,147431743,868649402531543937,1360546914.656161,9620,8476,10400,nan,0.000000
2,5,5,0,4735382,147431743,868649402531546558,1360546914.656161,9572,8424,10476,nan,0.000000
2,5,5,0,4735382,147431743,868649402531549179,1360546914.656161,9556,8452,10612,nan,0.000000
2,5,5,0,4735382,147431743,868649402531551800,1360546914.656161,9664,8544,10340,nan,0.000000
2,5,6,0,4735382,147431775,868649402531554421,1360546914.656395,9676,8700,10440,nan,0.000000
2,5,6,0,4735382,147431775,868649402531557042,1360546914.656395,9736,8616,10292,nan,0.000000
2,5,6,0,4735382,147431775,868649402531559663,1360546914.656395,9636,8080,10392,nan,0.000000
2,5,6,0,4735382,147431775,868649402531562284,1360546914.656395,9772,8312,10588,nan,0.000000
2,5,6,0,4735382,147431775,868649402531564905,1360546914.656395,9788,8472,10484,nan,0.000000
1,5,7,0,4816634,147512824,3758438748864825384,1360546914.656624,9596,7836,10736,nan,0.000000
1,5,7,0,4816634,147512824,3758438748864828005,1360546914.656624,9528,8484,10984,nan,0.000000
2,5,8,0,4816634,147512856,3758438748864830626,1360546914.656735,9328,8664,10488,nan,0.000000
2,5,8,0,4816634,147512856,3758438748864833247,1360546914.656735,9608,8496,10680,nan,0.000000
2,5,8,0,4816634,147512856,3758438748864835868,1360546914.656735,9724,7992,10688,nan,0.000000
2,5,8,0,4816634,147512856,3758438748864838489,1360546914.656735,9668,7912,10856,nan,0.000000
2,5,8,0,4816634,147512856,3758438748864841110,1360546914.656735,9696,7960,10656,nan,0.000000
2,5,9,0,4816634,147512888,3758438748864843731,1360546914.656966,9708,8136,10580,nan,0.000000
2,5,9,0,4816634,147512888,3758438748864846352,1360546914.656966,9928,7972,10536,nan,0.000000
2,5,9,0,4816634,147512888,3758438748864848973,1360546914.656966,9964,8172,10536,nan,0.000000
2,5,9,0,4816634,147512888,3758438748864851594,1360546914.656966,9920,8164,10460,nan,0.000000
2,5,9,0,4816634,147512888,3758438748864854215,1360546914.656966,9912,8064,10456,nan,0.000000
2,5,10,0,4816634,147512919,3758438748864856836,1360546914.657194,10036,8240,10252,nan,0.000000
2,5,10,0,4816634,147512919,3758438748864859457,1360546914.657194,10176,8004,10392,nan,0.000000
2,5,10,0,4816634,147512919,3758438748864862078,1360546914.657194,10252,8040,10408,nan,0.000000
2,5,10,0,4816634,147512919,3758438748864864699,1360546914.657194,10092,8216,10320,nan,0.000000
2,5,10,0,4816634,147512919,3758438748864867320,1360546914.657194,10088,8532,9984,nan,0.000000
2,5,11,0,4816634,147512951,3758438748864869941,1360546914.657425,10008,7572,10128,nan,0.000000
2,5,11,0,4816634,147512951,3758438748864872562,1360546914.657425,10280,8080,10340,nan,0.000000
2,5,11,0,4816634,147512951,3758438748864875183,1360546914.657425,10164,8452,10040,nan,0.000000
2,5,11,0,4816634,147512951,3758438748864877804,1360546914.657425,10184,8156,10188,nan,0.000000
2,5,11,0,4816634,147512951,3758438748864880425,1360546914.657425,10208,8228,9968,nan,0.000000
2,5,12,0,4816634,147512983,3758438748864883046,1360546914.657653,10220,8508,9900,nan,0.000000
2,5,12,0,4816634,147512983,3758438748864885667,1360546914.657653,10112,8400,9860,nan,0.000000
2,5,12,0,4816634,147512983,3758438748864888288,1360546914.657653,10204,8240,10112,nan,0.000000
2,5,12,0,4816634,147512983,3758438748864890909,1360546914.657653,10160,8352,10100,nan,0.000000
2,5,12,0,4816634,147512983,3758438748864893530,1360546914.657653,9932,8584,10084,nan,0.000000
2,5,13,0,4816634,147513015,3758438748864896151,1360546915.536249,9800,8780,9996,nan,0.000000
2,5,13,0,4816634,147513015,3758438748864898772,1360546915.536249,9876,7960,10000,nan,0.000000
2,5,13,0,4816634,147513015,3758438748864901393,1360546915.536249,10224,8104,10612,nan,0.000000
2,5,13,0,4816634,147513015,3758438748864904014,1360546915.536249,10008,8512,10480,nan,0.000000
2,5,13,0,4816634,147513015,3758438748864906635,1360546915.536249,9872,8480,10272,nan,0.000000
1,5,14,0,4897883,147594078,1163925552607136807,1360546915.537996,10008,8392,9996,nan,0.000000
1,5,14,0,4897883,147594078,1163925552607139428,1360546915.537996,10216,8228,10136,nan,0.000000
2,5,15,0,4897883,147594110,1163925552607142049,1360546915.538385,10140,8332,10124,nan,0.000000
2,5,15,0,4897883,147594110,1163925552607144670,1360546915.538385,9980,8432,10200,nan,0.000000
2,5,15,0,4897883,147594110,1163925552607147291,1360546915.538385,9756,8440,10224,nan,0.000000
2,5,15,0,4897883,147594110,1163925552607149912,1360546915.538385,9656,8476,10200,nan,0.000000
2,5,15,0,4897883,147594110,1163925552607152533,1360546915.538385,9620,8272,10136,nan,0.000000
2,5,0,0,4897883,147594142,1163925552607155154,1360546915.540006,9700,8484,10480,nan,0.000000
2,5,0,0,4897883,147594142,1163925552607157775,1360546915.540006,9044,9008,10840,nan,0.000000
2,5,0,0,4897883,147594142,1163925552607160396,1360546915.540006,8572,9088,10704,nan,0.000000
2,5,0,0,4897883,147594142,1163925552607163017,1360546915.540006,8256,9516,11196,nan,0.000000
2,5,0,0,4897883,147594142,1163925552607165638,1360546915.540006,8076,9400,11192,nan,0.000000
2,5,1,0,4897883,147594174,1163925552607168259,1360546915.540552,7988,9344,11212,nan,0.000000
2,5,1,0,4897883,147594174,1163925552607170880,1360546915.540552,7816,9420,11180,nan,0.000000
2,5,1,0,4897883,147594174,1163925552607173501,1360546915.540552,7692,9540,11340,nan,0.000000
2,5,1,0,4897883,147594174,1163925552607176122,1360546915.540552,7596,9412,11448,nan,0.000000
2,5,1,0,4897883,147594174,1163925552607178743,1360546915.540552,7528,9548,11444,nan,0.000000
2,5,2,0,4897883,147594206,1163925552607181364,1360546915.542127,7416,9696,11548,nan,0.000000
2,5,2,0,4897883,147594206,1163925552607183985,1360546915.542127,7448,9524,11448,nan,0.000000
2,5,2,0,4897883,147594206,1163925552607186606,1360546915.542127,7460,9584,11364,nan,0.000000
2,5,2,0,4897883,147594206,1163925552607189227,1360546915.542127,7480,9476,11408,nan,0.000000
2,5,2,0,4897883,147594206,1163925552607191848,1360546915.542127,7552,9584,11372,nan,0.000000
2,5,3,0,4897883,147594238,1163925552607194469,1360546915.542596,7680,9652,11156,nan,0.000000
2,5,3,0,4897883,147594238,1163925552607197090,1360546915.542596,7728,9660,11212,nan,0.000000
2,5,3,0,4897883,147594238,1163925552607199711,1360546915.542596,7692,9652,11104,nan,0.000000
2,5,3,0,4897883,147594238,1163925552607202332,1360546915.542596,7676,9736,11072,nan,0.000000
2,5,3,0,4897883,147594238,1163925552607204953,1360546915.542596,7660,9736,11144,nan,0.000000
2,5,4,0,4897883,147594270,1163925552607207574,1360546918.016168,7668,9676,11152,nan,0.000000
2,5,4,0,4897883,147594270,1163925552607210195,1360546918.016168,7644,9632,11192,nan,0.000000
2,5,4,0,4897883,147594270,1163925552607212816,1360546918.016168,7620,9652,11272,nan,0.000000
2,5,4,0,4897883,147594270,1163925552607215437,1360546918.016168,7592,9676,11260,nan,0.000000
2,5,4,0,4897883,147594270,1163925552607218058,1360546918.016168,7572,9660,11288,nan,0.000000
1,5,5,0,4979132,147675330,-5175867262265094101,1360546918.018062,7508,9768,11252,nan,0.000000
1,5,5,0,4979132,147675330,-5175867262265091480,1360546918.018062,7424,9736,11300,nan,0.000000
2,5,6,0,4979132,147675362,-5175867262265088859,1360546918.018381,7388,9728,11248,nan,0.000000
2,5,6,0,4979132,147675362,-5175867262265086238,1360546918.018381,7380,9752,11344,nan,0.000000
2,5,6,0,4979132,147675362,-5175867262265083617,1360546918.018381,7404,9764,11304,nan,0.000000
2,5,6,0,4979132,147675362,-5175867262265080996,1360546918.018381,7380,9772,11336,nan,0.000000
2,5,6,0,4979132,147675362,-5175867262265078375,1360546918.018381,7404,9776,11260,nan,0.000000
2,5,7,0,4979132,147675394,-5175867262265075754,1360546918.020147,7392,9744,11312,nan,0.000000
2,5,7,0,4979132,147675394,-5175867262265073133,1360546918.020147,7400,9832,11196,nan,0.000000
2,5,7,0,4979132,147675394,-5175867262265070512,1360546918.020147,7448,9756,11184,nan,0.000000
2,5,7,0,4979132,147675394,-5175867262265067891,1360546918.020147,7396,9748,11136,nan,0.000000
2,5,7,0,4979132,147675394,-5175867262265065270,1360546918.020147,7424,9736,11240,nan,0.000000
2,5,8,0,4979132,147675426,-5175867262265062649,1360546918.020679,7364,9796,11216,nan,0.000000
2,5,8,0,4979132,147675426,-5175867262265060028,1360546918.020679,7304,9732,11300,nan,0.000000
2,5,8,0,4979132,147675426,-5175867262265057407,1360546918.020679,7196,9616,11408,nan,0.000000
2,5,8,0,4979132,147675426,-5175867262265054786,1360546918.020679,7192,9780,11580,nan,0.000000
2,5,8,0,4979132,147675426,-5175867262265052165,1360546918.020679,7204,9700,11540,nan,0.000000
2,5,9,0,4979132,147675457,-5175867262265049544,1360546918.022202,7136,9684,11520,nan,0.000000
2,5,9,0,4979132,147675457,-5175867262265046923,1360546918.022202,7068,9776,11492,nan,0.000000
2,5,9,0,4979132,147675457,-5175867262265044302,1360546918.022202,7056,9784,11548,nan,0.000000
2,5,9,0,4979132,147675457,-5175867262265041681,1360546918.022202,7088,9820,11476,nan,0.000000
2,5,9,0,4979132,147675457,-5175867262265039060,1360546918.022202,7052,9800,11456,nan,0.000000
2,5,10,0,4979132,147675490,-5175867262265036439,1360546918.022734,7052,9772,11404,nan,0.000000
2,5,10,0,4979132,147675490,-5175867262265033818,1360546918.022734,7080,9928,11484,nan,0.000000
2,5,10,0,4979132,147675490,-5175867262265031197,1360546918.022734,7144,9832,11388,nan,0.000000
2,5,10,0,4979132,147675490,-5175867262265028576,1360546918.022734,7124,9840,11520,nan,0.000000
2,5,10,0,4979132,147675490,-5175867262265025955,1360546918.022734,7144,9816,11364,nan,0.000000
2,5,11,0,4979132,147675521,-5175867262265023334,1360546920.495788,7080,9728,11316,nan,0.000000
2,5,11,0,4979132,147675521,-5175867262265020713,1360546920.495788,7132,9744,11412,nan,0.000000
2,5,11,0,4979132,147675521,-5175867262265018092,1360546920.495788,7208,9732,11488,nan,0.000000
2,5,11,0,4979132,147675521,-5175867262265015471,1360546920.495788,7168,9832,11440,nan,0.000000
2,5,11,0,4979132,147675521,-5175867262265012850,1360546920.495788,7172,9736,11420,nan,0.000000
1,5,12,0,5060383,147756584,-7769817498033376212,1360546920.497929,7124,9796,11420,nan,0.000000
1,5,12,0,5060383,147756584,-7769817498033373591,1360546920.497929,7140,9780,11336,nan,0.000000
2,5,13,0,5060383,147756616,-7769817498033370970,1360546920.498101,7116,9848,11344,nan,0.000000
2,5,13,0,5060383,147756616,-7769817498033368349,1360546920.498101,7184,9944,11328,nan,0.000000
2,5,13,0,5060383,147756616,-7769817498033365728,1360546920.498101,7164,9844,11384,nan,0.000000
2,5,13,0,5060383,147756616,-7769817498033363107,1360546920.498101,7184,9820,11404,nan,0.000000
2,5,13,0,5060383,147756616,-7769817498033360486,1360546920.498101,7160,9836,11344,nan,0.000000
2,5,14,0,5060383,147756648,-7769817498033357865,1360546920.498363,7256,9836,11284,nan,0.000000
2,5,14,0,5060383,147756648,-7769817498033355244,1360546920.498363,7116,9904,11452,nan,0.000000
2,5,14,0,5060383,147756648,-7769817498033352623,1360546920.498363,7196,9912,11200,nan,0.000000
2,5,14,0,5060383,147756648,-7769817498033350002,1360546920.498363,7236,9804,11384,nan,0.000000
2,5,14,0,5060383,147756648,-7769817498033347381,1360546920.498363,7404,9600,11296,nan,0.000000
2,5,15,0,5060383,147756679,-7769817498033344760,1360546920.499760,7212,9792,11420,nan,0.000000
2,5,15,0,5060383,147756679,-7769817498033342139,1360546920.499760,7248,9872,11248,nan,0.000000
2,5,15,0,5060383,147756679,-7769817498033339518,1360546920.499760,7256,9868,11256,nan,0.000000
2,5,15,0,5060383,147756679,-7769817498033336897,1360546920.499760,7348,9772,11448,nan,0.000000
2,5,15,0,5060383,147756679,-7769817498033334276,1360546920.499760,7260,9820,11320,nan,0.000000
2,5,0,0,5060383,147756712,-7769817498033331655,1360546920.500185,7328,9752,11296,nan,0.000000
2,5,0,0,5060383,147756712,-7769817498033329034,1360546920.500185,7392,9684,11228,nan,0.000000
2,5,0,0,5060383,147756712,-7769817498033326413,1360546920.500185,7472,9592,11384,nan,0.000000
2,5,0,0,5060383,147756712,-7769817498033323792,1360546920.500185,7480,9664,11396,nan,0.000000
2,5,0,0,5060383,147756712,-7769817498033321171,1360546920.500185,7444,9668,11324,nan,0.000000
2,5,1,0,5060383,147756744,-7769817498033318550,1360546920.501831,7360,9708,11324,nan,0.000000
2,5,1,0,5060383,147756744,-7769817498033315929,1360546920.501831,7392,9644,11332,nan,0.000000
2,5,1,0,5060383,147756744,-7769817498033313308,1360546920.501831,7460,9688,11324,nan,0.000000
2,5,1,0,5060383,147756744,-7769817498033310687,1360546920.501831,7516,9728,11256,nan,0.000000
2,5,1,0,5060383,147756744,-7769817498033308066,1360546920.501831,7476,9676,11216,nan,0.000000
2,5,2,0,5060383,147756776,-7769817498033305445,1360546922.976060,7548,9656,11236,nan,0.000000
2,5,2,0,5060383,147756776,-7769817498033302824,1360546922.976060,7596,9752,11264,nan,0.000000
2,5,2,0,5060383,147756776,-7769817498033300203,1360546922.976060,7656,9676,11176,nan,0.000000
2,5,2,0,5060383,147756776,-7769817498033297582,1360546922.976060,7668,9660,11192,nan,0.000000
2,5,2,0,5060383,147756776,-7769817498033294961,1360546922.976060,7612,9788,11220,nan,0.000000
1,5,3,0,5141635,147837840,12411453350732843,1360546922.977381,7640,9704,11168,nan,0.000000
1,5,3,0,5141635,147837840,12411453350735464,1360546922.977381,7676,9748,11176,nan,0.000000
2,5,4,0,5141635,147837872,12411453350738085,1360546922.977872,7672,9740,11196,nan,0.000000
2,5,4,0,5141635,147837872,12411453350740706,1360546922.977872,7676,9692,11128,nan,0.000000
2,5,4,0,5141635,147837872,12411453350743327,1360546922.977872,7680,9744,11164,nan,0.000000
2,5,4,0,5141635,147837872,12411453350745948,1360546922.977872,7600,9696,11128,nan,0.000000
2,5,4,0,5141635,147837872,12411453350748569,1360546922.977872,7684,9740,11084,nan,0.000000
2,5,5,0,5141635,147837904,12411453350751190,1360546922.979166,7704,9752,11112,nan,0.000000
2,5,5,0,5141635,147837904,12411453350753811,1360546922.979166,7676,9752,11056,nan,0.000000
2,5,5,0,5141635,147837904,12411453350756432,1360546922.979166,7652,9764,11076,nan,0.000000
2,5,5,0,5141635,147837904,12411453350759053,1360546922.979166,7552,9752,11168,nan,0.000000
2,5,5,0,5141635,147837904,12411453350761674,1360546922.979166,7692,9716,11032,nan,0.000000
2,5,6,0,5141635,147837936,12411453350764295,1360546922.980142,7696,9728,11196,nan,0.000000
2,5,6,0,5141635,147837936,12411453350766916,1360546922.980142,7672,9700,11112,nan,0.000000
2,5,6,0,5141635,147837936,12411453350769537,1360546922.980142,7660,9704,11188,nan,0.000000
2,5,6,0,5141635,147837936,12411453350772158,1360546922.980142,7708,9700,11140,nan,0.000000
2,5,6,0,5141635,147837936,12411453350774779,1360546922.980142,7648,9748,11100,nan,0.000000
2,5,7,0,5141635,147837968,12411453350777400,1360546922.980844,7656,9788,11152,nan,0.000000
2,5,7,0,5141635,147837968,12411453350780021,1360546922.980844,7668,9840,11144,nan,0.000000
2,5,7,0,5141635,147837968,12411453350782642,1360546922.980844,7668,9744,11164,nan,0.000000
2,5,7,0,5141635,147837968,12411453350785263,1360546922.980844,7848,9728,10956,nan,0.000000
2,5,7,0,5141635,147837968,12411453350787884,1360546922.980844,8080,9720,11272,nan,0.000000
2,5,8,0,5141635,147838000,12411453350790505,1360546922.981709,8220,9448,11324,nan,0.000000
2,5,8,0,5141635,147838000,12411453350793126,1360546922.981709,8528,9488,11048,nan,0.000000
2,5,8,0,5141635,147838000,12411453350795747,1360546922.981709,8860,9596,10700,nan,0.000000
2,5,8,0,5141635,147838000,12411453350798368,1360546922.981709,8940,10064,10156,nan,0.000000
2,5,8,0,5141635,147838000,12411453350800989,1360546922.981709,9440,9720,8920,nan,0.000000
2,5,9,0,5141635,147838032,12411453350803610,1360546925.456014,10584,9284,7900,nan,0.000000
2,5,9,0,5141635,147838032,12411453350806231,1360546925.456014,11960,9120,7292,nan,0.000000
2,5,9,0,5141635,147838032,12411453350808852,1360546925.456014,11888,8240,7220,nan,0.000000
2,5,9,0,5141635,147838032,12411453350811473,1360546925.456014,11968,8244,6668,nan,0.000000
2,5,9,0,5141635,147838032,12411453350814094,1360546925.456014,12524,6776,6704,nan,0.000000
1,5,10,0,5222885,147919098,8943199035325340702,1360546925.457107,15376,4580,8456,nan,0.000000
1,5,10,0,5222885,147919098,8943199035325343323,1360546925.457107,15984,-2308,8412,nan,0.000000
2,5,11,0,5222885,147919129,8943199035325345944,1360546925.457723,16312,-504,5988,nan,0.000000
2,5,11,0,5222885,147919129,8943199035325348565,1360546925.457723,13996,-1316,4056,nan,0.000000
2,5,11,0,5222885,147919129,8943199035325351186,1360546925.457723,14240,-3596,4168,nan,0.000000
2,5,11,0,5222885,147919129,8943199035325353807,1360546925.457723,15116,-4128,3276,nan,0.000000
2,5,11,0,5222885,147919129,8943199035325356428,1360546925.457723,15104,-4692,2740,nan,0.000000
2,5,12,0,5222885,147919162,8943199035325359049,1360546925.458458,14528,-5480,2604,nan,0.000000
2,5,12,0,5222885,147919162,8943199035325361670,1360546925.458458,14404,-6336,3260,nan,0.000000
2,5,12,0,5222885,147919162,8943199035325364291,1360546925.458458,14064,-7220,2996,nan,0.000000
2,5,12,0,5222885,147919162,8943199035325366912,1360546925.458458,19484,-4276,2668,nan,0.000000
2,5,12,0,5222885,147919162,8943199035325369533,1360546925.458458,14176,-924,656,nan,0.000000
2,5,13,0,5222885,147919193,8943199035325372154,1360546925.459651,18004,920,-1048,nan,0.000000
2,5,13,0,5222885,147919193,8943199035325374775,1360546925.459651,15836,-3192,292,nan,0.000000
2,5,13,0,5222885,147919193,8943199035325377396,1360546925.459651,15236,-572,-664,nan,0.000000
2,5,13,0,5222885,147919193,8943199035325380017,1360546925.459651,15144,-2572,-640,nan,0.000000
2,5,13,0,5222885,147919193,8943199035325382638,1360546925.459651,15404,-2548,-1052,nan,0.000000
2,5,14,0,5222885,147919226,8943199035325385259,1360546925.460515,15176,-3644,-1792,nan,0.000000
2,5,14,0,5222885,147919226,8943199035325387880,1360546925.460515,15532,-3020,-3080,nan,0.000000
2,5,14,0,5222885,147919226,8943199035325390501,1360546925.460515,15804,-3112,-4848,nan,0.000000
2,5,14,0,5222885,147919226,8943199035325393122,1360546925.460515,17784,-5616,-4524,nan,0.000000
2,5,14,0,5222885,147919226,8943199035325395743,1360546925.460515,16512,-576,816,nan,0.000000
2,5,15,0,5222885,147919257,8943199035325398364,1360546925.461640,15100,-3824,2448,nan,0.000000
2,5,15,0,5222885,147919257,8943199035325400985,1360546925.461640,16772,60,-1500,nan,0.000000
2,5,15,0,5222885,147919257,8943199035325403606,1360546925.461640,14284,-3880,-764,nan,0.000000
2,5,15,0,5222885,147919257,8943199035325406227,1360546925.461640,14632,-5272,-1596,nan,0.000000
2,5,15,0,5222885,147919257,8943199035325408848,1360546925.461640,15456,-3560,-1552,nan,0.000000
2,5,0,0,5222885,147919290,8943199035325411469,1360546927.935969,14672,-4448,-1552,nan,0.000000
2,5,0,0,5222885,147919290,8943199035325414090,1360546927.935969,15816,-5444,80,nan,0.000000
2,5,0,0,5222885,147919290,8943199035325416711,1360546927.935969,20728,172,-2400,nan,0.000000
2,5,0,0,5222885,147919290,8943199035325419332,1360546927.935969,11896,-728,648,nan,0.000000
2,5,0,0,5222885,147919290,8943199035325421953,1360546927.935969,18452,-2696,-3504,nan,0.000000
1,5,1,0,5304134,148000347,5764815239602106617,1360546927.937213,15128,-864,-1248,nan,0.000000
1,5,1,0,5304134,148000347,5764815239602109238,1360546927.937213,16116,-2112,-1744,nan,0.000000
2,5,2,0,5304134,148000379,5764815239602111859,1360546927.937766,15540,-1864,-1728,nan,0.000000
2,5,2,0,5304134,148000379,5764815239602114480,1360546927.937766,15640,-1220,-2312,nan,0.000000
2,5,2,0,5304134,148000379,5764815239602117101,1360546927.937766,16120,-1824,-2648,nan,0.000000
2,5,2,0,5304134,148000379,5764815239602119722,1360546927.937766,15740,-1784,-3432,nan,0.000000
2,5,2,0,5304134,148000379,5764815239602122343,1360546927.937766,18784,-2016,-2488,nan,0.000000
2,5,3,0,5304134,148000411,5764815239602124964,1360546927.938725,17108,504,-716,nan,0.000000
2,5,3,0,5304134,148000411,5764815239602127585,1360546927.938725,12892,-2812,1752,nan,0.000000
2,5,3,0,5304134,148000411,5764815239602130206,1360546927.938725,18584,-884,1004,nan,0.000000
2,5,3,0,5304134,148000411,5764815239602132827,1360546927.938725,15852,-2100,-620,nan,0.000000
2,5,3,0,5304134,148000411,5764815239602135448,1360546927.938725,14696,-4036,-800,nan,0.000000
2,5,4,0,5304134,148000443,5764815239602138069,1360546927.939568,15456,-4144,-1164,nan,0.000000
2,5,4,0,5304134,148000443,5764815239602140690,1360546927.939568,15012,-4140,-1248,nan,0.000000
2,5,4,0,5304134,148000443,5764815239602143311,1360546927.939568,16560,-2724,-1368,nan,0.000000
2,5,4,0,5304134,148000443,5764815239602145932,1360546927.939568,15916,1544,-400,nan,0.000000
2,5,4,0,5304134,148000443,5764815239602148553,1360546927.939568,15908,-1428,-644,nan,0.000000
2,5,5,0,5304134,148000475,5764815239602151174,1360546927.940380,16500,-1716,-2196,nan,0.000000
2,5,5,0,5304134,148000475,5764815239602153795,1360546927.940380,15656,-1972,-1420,nan,0.000000
2,5,5,0,5304134,148000475,5764815239602156416,1360546927.940380,15788,-1940,-1548,nan,0.000000
2,5,5,0,5304134,148000475,5764815239602159037,1360546927.940380,15580,-1920,-1656,nan,0.000000
2,5,5,0,5304134,148000475,5764815239602161658,1360546927.940380,15948,-876,-2432,nan,0.000000
2,5,6,0,5304134,148000507,5764815239602164279,1360546927.941642,15936,-500,-2576,nan,0.000000
2,5,6,0,5304134,148000507,5764815239602166900,1360546927.941642,16192,100,-3048,nan,0.000000
2,5,6,0,5304134,148000507,5764815239602169521,1360546927.941642,16652,264,-3812,nan,0.000000
2,5,6,0,5304134,148000507,5764815239602172142,1360546927.941642,20784,252,232,nan,0.000000
2,5,6,0,5304134,148000507,5764815239602174763,1360546927.941642,11748,-3224,1316,nan,0.000000
2,5,7,0,5304134,148000539,5764815239602177384,1360546930.445894,17848,-2496,2912,nan,0.000000
2,5,7,0,5304134,148000539,5764815239602180005,1360546930.445894,15164,-2656,28,nan,0.000000
2,5,7,0,5304134,148000539,5764815239602182626,1360546930.445894,14232,-5008,272,nan,0.000000
2,5,7,0,5304134,148000539,5764815239602185247,1360546930.445894,15300,-4184,-816,nan,0.000000
2,5,7,0,5304134,148000539,5764815239602187868,1360546930.445894,15160,-4512,-1184,nan,0.000000
1,5,8,0,5385384,148082615,2017789608199938059,1360546930.447543,15396,-4672,-1636,nan,0.000000
1,5,8,0,5385384,148082615,2017789608199940680,1360546930.447543,16172,-6672,-2136,nan,0.000000
2,5,9,0,5385384,148082647,2017789608199943301,1360546930.448139,20116,-5040,-904,nan,0.000000
2,5,9,0,5385384,148082647,2017789608199945922,1360546930.448139,12632,1836,1304,nan,0.000000
2,5,9,0,5385384,148082647,2017789608199948543,1360546930.448139,17940,-4848,-1700,nan,0.000000
2,5,9,0,5385384,148082647,2017789608199951164,1360546930.448139,14824,-3428,-260,nan,0.000000
2,5,9,0,5385384,148082647,2017789608199953785,1360546930.448139,14072,-1000,-1180,nan,0.000000
2,5,10,0,5385384,148082679,2017789608199956406,1360546930.449707,15172,-2520,-1836,nan,0.000000
2,5,10,0,5385384,148082679,2017789608199959027,1360546930.449707,14896,-3336,-2180,nan,0.000000
2,5,10,0,5385384,148082679,2017789608199961648,1360546930.449707,15488,-2924,-2904,nan,0.000000
2,5,10,0,5385384,148082679,2017789608199964269,1360546930.449707,16580,-4556,-4544,nan,0.000000
2,5,10,0,5385384,148082679,2017789608199966890,1360546930.449707,22444,-2712,-228,nan,0.000000
2,5,11,0,5385384,148082711,2017789608199969511,1360546930.450646,9836,-456,1244,nan,0.000000
2,5,11,0,5385384,148082711,2017789608199972132,1360546930.450646,19152,-1120,-136,nan,0.000000
2,5,11,0,5385384,148082711,2017789608199974753,1360546930.450646,14668,-1968,-1048,nan,0.000000
2,5,11,0,5385384,148082711,2017789608199977374,1360546930.450646,13520,-5364,-1128,nan,0.000000
2,5,11,0,5385384,148082711,2017789608199979995,1360546930.450646,14996,-4436,-2184,nan,0.000000
2,5,12,0,5385384,148082743,2017789608199982616,1360546930.451524,14400,-4608,-2980,nan,0.000000
2,5,12,0,5385384,148082743,2017789608199985237,1360546930.451524,14412,-5944,-2716,nan,0.000000
2,5,12,0,5385384,148082743,2017789608199987858,1360546930.451524,18448,-5424,-2664,nan,0.000000
2,5,12,0,5385384,148082743,2017789608199990479,1360546930.451524,18696,-3844,-1508,nan,0.000000
2,5,12,0,5385384,148082743,2017789608199993100,1360546930.451524,11792,868,152,nan,0.000000
2,5,13,0,5385384,148082774,2017789608199995721,1360546930.452322,18976,-8192,-1932,nan,0.000000
2,5,13,0,5385384,148082774,2017789608199998342,1360546930.452322,14536,-2664,-1100,nan,0.000000
2,5,13,0,5385384,148082774,2017789608200000963,1360546930.452322,14492,-2052,-1580,nan,0.000000
2,5,13,0,5385384,148082774,2017789608200003584,1360546930.452322,15340,-3836,-1964,nan,0.000000
2,5,13,0,5385384,148082774,2017789608200006205,1360546930.452322,15308,-4384,-1580,nan,0.000000
2,5,14,0,5385384,148082807,2017789608200008826,1360546932.895860,15380,-3612,-2160,nan,0.000000
2,5,14,0,5385384,148082807,2017789608200011447,1360546932.895860,14944,-2472,-2988,nan,0.000000
2,5,14,0,5385384,148082807,2017789608200014068,1360546932.895860,15772,-2172,-2164,nan,0.000000
2,5,14,0,5385384,148082807,2017789608200016689,1360546932.895860,18316,-6016,584,nan,0.000000
2,5,14,0,5385384,148082807,2017789608200019310,1360546932.895860,13248,-2792,3328,nan,0.000000
1,5,15,0,5466633,148162856,6121615608702996727,1360546932.897037,15036,-4536,1220,nan,0.000000
1,5,15,0,5466633,148162856,6121615608702999348,1360546932.897037,14844,-4488,2812,nan,0.000000
2,5,0,0,5466633,148162888,6121615608703001969,1360546932.897611,15796,-4336,4004,nan,0.000000
2,5,0,0,5466633,148162888,6121615608703004590,1360546932.897611,16436,-3080,2580,nan,0.000000
2,5,0,0,5466633,148162888,6121615608703007211,1360546932.897611,15220,-3544,2612,nan,0.000000
2,5,0,0,5466633,148162888,6121615608703009832,1360546932.897611,15024,-4908,3488,nan,0.000000
2,5,0,0,5466633,148162888,6121615608703012453,1360546932.897611,15132,-4508,2940,nan,0.000000
2,5,1,0,5466633,148162919,6121615608703015074,1360546932.898691,16236,-2548,2252,nan,0.000000
2,5,1,0,5466633,148162919,6121615608703017695,1360546932.898691,14760,-600,-2036,nan,0.000000
2,5,1,0,5466633,148162919,6121615608703020316,1360546932.898691,19484,-3752,-1340,nan,0.000000
2,5,1,0,5466633,148162919,6121615608703022937,1360546932.898691,15132,-24,-908,nan,0.000000
2,5,1,0,5466633,148162919,6121615608703025558,1360546932.898691,14968,-240,-1680,nan,0.000000
2,5,2,0,5466633,148162952,6121615608703028179,1360546932.899439,15532,-2960,-1424,nan,0.000000
2,5,2,0,5466633,148162952,6121615608703030800,1360546932.899439,15448,-2244,-1544,nan,0.000000
2,5,2,0,5466633,148162952,6121615608703033421,1360546932.899439,15312,-2608,-1232,nan,0.000000
2,5,2,0,5466633,148162952,6121615608703036042,1360546932.899439,15984,-2792,-2016,nan,0.000000
2,5,2,0,5466633,148162952,6121615608703038663,1360546932.899439,17176,-2236,-3348,nan,0.000000
2,5,3,0,5466633,148162983,6121615608703041284,1360546932.900226,16864,-3484,-3540,nan,0.000000
2,5,3,0,5466633,148162983,6121615608703043905,1360546932.900226,19220,-488,2120,nan,0.000000
2,5,3,0,5466633,148162983,6121615608703046526,1360546932.900226,13180,-2332,1568,nan,0.000000
2,5,3,0,5466633,148162983,6121615608703049147,1360546932.900226,16744,-768,-620,nan,0.000000
2,5,3,0,5466633,148162983,6121615608703051768,1360546932.900226,14296,-3368,-616,nan,0.000000
2,5,4,0,5466633,148163016,6121615608703054389,1360546932.900954,14536,-5152,-1580,nan,0.000000
2,5,4,0,5466633,148163016,6121615608703057010,1360546932.900954,14648,-3700,-2308,nan,0.000000
2,5,4,0,5466633,148163016,6121615608703059631,1360546932.900954,14868,-4192,-2712,nan,0.000000
2,5,4,0,5466633,148163016,6121615608703062252,1360546932.900954,15208,-5184,-2884,nan,0.000000
2,5,4,0,5466633,148163016,6121615608703064873,1360546932.900954,15364,-6476,-4112,nan,0.000000
1,5,6,0,5547883,148325358,7494359215922262261,1360546937.855347,15004,-3652,-2552,nan,0.000000
1,5,6,0,5547883,148325358,7494359215922264882,1360546937.855347,14872,-3524,-3280,nan,0.000000
2,5,7,0,5547883,148325390,7494359215922267503,1360546937.855933,15620,-3604,-4012,nan,0.000000
2,5,7,0,5547883,148325390,7494359215922270124,1360546937.855933,20796,-4128,-3608,nan,0.000000
2,5,7,0,5547883,148325390,7494359215922272745,1360546937.855933,15084,628,304,nan,0.000000
2,5,7,0,5547883,148325390,7494359215922275366,1360546937.855933,14592,-1772,1376,nan,0.000000
2,5,7,0,5547883,148325390,7494359215922277987,1360546937.855933,17128,-92,-1420,nan,0.000000
2,5,8,0,5547883,148325422,7494359215922280608,1360546937.857332,14696,-2912,-996,nan,0.000000
2,5,8,0,5547883,148325422,7494359215922283229,1360546937.857332,15152,-3784,-1556,nan,0.000000
2,5,8,0,5547883,148325422,7494359215922285850,1360546937.857332,15004,-3400,-2332,nan,0.000000
2,5,8,0,5547883,148325422,7494359215922288471,1360546937.857332,14700,-4484,-3240,nan,0.000000
2,5,8,0,5547883,148325422,7494359215922291092,1360546937.857332,14404,-4916,-3220,nan,0.000000
2,5,9,0,5547883,148325454,7494359215922293713,1360546937.858050,15048,-4052,-3740,nan,0.000000
2,5,9,0,5547883,148325454,7494359215922296334,1360546937.858050,18748,-4136,-3396,nan,0.000000
2,5,9,0,5547883,148325454,7494359215922298955,1360546937.858050,15176,-3684,96,nan,0.000000
2,5,9,0,5547883,148325454,7494359215922301576,1360546937.858050,15132,-2552,-1140,nan,0.000000
2,5,9,0,5547883,148325454,7494359215922304197,1360546937.858050,16476,-6288,-1268,nan,0.000000
2,5,10,0,5547883,148325486,7494359215922306818,1360546937.859377,14864,-2556,-772,nan,0.000000
2,5,10,0,5547883,148325486,7494359215922309439,1360546937.859377,15348,-3424,-1172,nan,0.000000
2,5,10,0,5547883,148325486,7494359215922312060,1360546937.859377,15456,-3496,-876,nan,0.000000
2,5,10,0,5547883,148325486,7494359215922314681,1360546937.859377,15384,-3168,-616,nan,0.000000
2,5,10,0,5547883,148325486,7494359215922317302,1360546937.859377,16268,-2464,-1284,nan,0.000000
2,5,11,0,5547883,148325518,7494359215922319923,1360546937.860188,16180,-2956,132,nan,0.000000
2,5,11,0,5547883,148325518,7494359215922322544,1360546937.860188,15608,-4124,2344,nan,0.000000
2,5,11,0,5547883,148325518,7494359215922325165,1360546937.860188,14080,-3904,1740,nan,0.000000
2,5,11,0,5547883,148325518,7494359215922327786,1360546937.860188,16492,-4908,1904,nan,0.000000
2,5,11,0,5547883,148325518,7494359215922330407,1360546937.860188,15656,-4500,1088,nan,0.000000
2,5,12,0,5547883,148325550,7494359215922333028,1360546937.861308,15032,-5000,1400,nan,0.000000
2,5,12,0,5547883,148325550,7494359215922335649,1360546937.861308,15820,-4064,1352,nan,0.000000
2,5,12,0,5547883,148325550,7494359215922338270,1360546937.861308,15448,-4504,992,nan,0.000000
2,5,12,0,5547883,148325550,7494359215922340891,1360546937.861308,15008,-5656,1140,nan,0.000000
2,5,12,0,5547883,148325550,7494359215922343512,1360546937.861308,14904,-6124,1392,nan,0.000000
1,5,13,0,5629130,148325582,5189590364205185029,1360546937.861947,16104,-5008,1784,nan,0.000000
1,5,13,15,5629130,148325582,5189590364205187650,1360546937.861947,17288,-4280,256,nan,0.000000
2,5,14,15,5629130,148325614,5189590364205190271,1360546937.863325,14108,-512,416,nan,0.000000
2,5,14,15,5629130,148325614,5189590364205192892,1360546937.863325,18404,-4532,-956,nan,0.000000
2,5,14,15,5629130,148325614,5189590364205195513,1360546937.863325,14668,-1132,-524,nan,0.000000
2,5,14,15,5629130,148325614,5189590364205198134,1360546937.863325,15364,-2516,-528,nan,0.000000
2,5,14,15,5629130,148325614,5189590364205200755,1360546937.863325,15392,-3216,-1056,nan,0.000000
2,5,15,15,5629130,148325646,5189590364205203376,1360546937.864000,15180,-2748,-712,nan,0.000000
2,5,15,15,5629130,148325646,5189590364205205997,1360546937.864000,15320,-2668,-1224,nan,0.000000
2,5,15,15,5629130,148325646,5189590364205208618,1360546937.864000,15664,-3108,-2192,nan,0.000000
2,5,15,15,5629130,148325646,5189590364205211239,1360546937.864000,15484,-4464,-2396,nan,0.000000
2,5,15,15,5629130,148325646,5189590364205213860,1360546937.864000,20476,-5784,-316,nan,0.000000
2,5,0,15,5629130,148325678,5189590364205216481,1360546937.865353,15656,1800,1848,nan,0.000000
2,5,0,15,5629130,148325678,5189590364205219102,1360546937.865353,15196,-448,2920,nan,0.000000
2,5,0,15,5629130,148325678,5189590364205221723,1360546937.865353,15912,-40,532,nan,0.000000
2,5,0,15,5629130,148325678,5189590364205224344,1360546937.865353,14632,-3756,776,nan,0.000000
2,5,0,15,5629130,148325678,5189590364205226965,1360546937.865353,15020,-3604,-180,nan,0.000000
2,5,1,15,5629130,148325710,5189590364205229586,1360546937.865959,15240,-3564,-1292,nan,0.000000
2,5,1,15,5629130,148325710,5189590364205232207,1360546937.865959,14652,-4624,-1772,nan,0.000000
2,5,1,15,5629130,148325710,5189590364205234828,1360546937.865959,15040,-4668,-1764,nan,0.000000
2,5,1,15,5629130,148325710,5189590364205237449,1360546937.865959,15812,-4924,-2560,nan,0.000000
2,5,1,15,5629130,148325710,5189590364205240070,1360546937.865959,18580,-5116,-1936,nan,0.000000
2,5,2,15,5629130,148325742,5189590364205242691,1360546937.867312,15468,-1724,380,nan,0.000000
2,5,2,15,5629130,148325742,5189590364205245312,1360546937.867312,16340,-2364,-1992,nan,0.000000
2,5,2,15,5629130,148325742,5189590364205247933,1360546937.867312,15684,-5728,-1248,nan,0.000000
2,5,2,15,5629130,148325742,5189590364205250554,1360546937.867312,13804,-1800,-556,nan,0.000000
2,5,2,15,5629130,148325742,5189590364205253175,1360546937.867312,14880,-2484,-1836,nan,0.000000
2,5,3,15,5629130,148325774,5189590364205255796,1360546940.333486,14832,-3960,-2232,nan,0.000000
2,5,3,15,5629130,148325774,5189590364205258417,1360546940.333486,15216,-3356,-2120,nan,0.000000
2,5,3,15,5629130,148325774,5189590364205261038,1360546940.333486,16364,-2608,-2892,nan,0.000000
2,5,3,15,5629130,148325774,5189590364205263659,1360546940.333486,19352,-3688,-3136,nan,0.000000
2,5,3,15,5629130,148325774,5189590364205266280,1360546940.333486,18288,-1408,2108,nan,0.000000
1,5,4,0,5710379,148406612,-5118370721567127305,1360546940.335389,18076,-920,672,nan,0.000000
1,5,4,1,5710379,148406612,-5118370721567124684,1360546940.335389,14196,-3180,444,nan,0.000000
2,5,5,1,5710379,148406644,-5118370721567122063,1360546940.335924,14384,-4428,-156,nan,0.000000
2,5,5,1,5710379,148406644,-5118370721567119442,1360546940.335924,15248,-3848,-968,nan,0.000000
2,5,5,1,5710379,148406644,-5118370721567116821,1360546940.335924,14960,-4740,-1344,nan,0.000000
2,5,5,1,5710379,148406644,-5118370721567114200,1360546940.335924,14840,-4612,-1428,nan,0.000000
2,5,5,1,5710379,148406644,-5118370721567111579,1360546940.335924,17044,-3908,-1760,nan,0.000000
2,5,6,1,5710379,148406676,-5118370721567108958,1360546940.337287,18944,-5024,-40,nan,0.000000
2,5,6,1,5710379,148406676,-5118370721567106337,1360546940.337287,12040,-140,1032,nan,0.000000
2,5,6,1,5710379,148406676,-5118370721567103716,1360546940.337287,19068,-6312,-2152,nan,0.000000
2,5,6,1,5710379,148406676,-5118370721567101095,1360546940.337287,14712,-4100,-12,nan,0.000000
2,5,6,1,5710379,148406676,-5118370721567098474,1360546940.337287,14964,-1952,-152,nan,0.000000
2,5,7,1,5710379,148406708,-5118370721567095853,1360546940.338094,15988,-3744,-1512,nan,0.000000
2,5,7,1,5710379,148406708,-5118370721567093232,1360546940.338094,14968,-4192,-688,nan,0.000000
2,5,7,1,5710379,148406708,-5118370721567090611,1360546940.338094,15344,-2784,-708,nan,0.000000
2,5,7,1,5710379,148406708,-5118370721567087990,1360546940.338094,16680,-3228,-1456,nan,0.000000
2,5,7,1,5710379,148406708,-5118370721567085369,1360546940.338094,15992,-3168,1608,nan,0.000000
2,5,8,1,5710379,148406740,-5118370721567082748,1360546940.339265,14540,-3524,1476,nan,0.000000
2,5,8,1,5710379,148406740,-5118370721567080127,1360546940.339265,15272,-4716,764,nan,0.000000
2,5,8,1,5710379,148406740,-5118370721567077506,1360546940.339265,16436,-3068,732,nan,0.000000
2,5,8,1,5710379,148406740,-5118370721567074885,1360546940.339265,15124,-5088,1056,nan,0.000000
2,5,8,1,5710379,148406740,-5118370721567072264,1360546940.339265,15280,-4980,696,nan,0.000000
2,5,9,1,5710379,148406772,-5118370721567069643,1360546940.340258,15612,-4144,844,nan,0.000000
2,5,9,1,5710379,148406772,-5118370721567067022,1360546940.340258,15328,-4796,1052,nan,0.000000
2,5,9,1,5710379,148406772,-5118370721567064401,1360546940.340258,15380,-4988,1192,nan,0.000000
2,5,9,1,5710379,148406772,-5118370721567061780,1360546940.340258,15032,-5516,848,nan,0.000000
2,5,9,1,5710379,148406772,-5118370721567059159,1360546940.340258,14652,-5856,912,nan,0.000000
2,5,10,1,5710379,148406804,-5118370721567056538,1360546942.813579,15520,-4260,1568,nan,0.000000
2,5,10,1,5710379,148406804,-5118370721567053917,1360546942.813579,17628,-3416,16,nan,0.000000
2,5,10,1,5710379,148406804,-5118370721567051296,1360546942.813579,14580,-3332,528,nan,0.000000
2,5,10,1,5710379,148406804,-5118370721567048675,1360546942.813579,17432,-2988,-2220,nan,0.000000
2,5,10,1,5710379,148406804,-5118370721567046054,1360546942.813579,16128,-2448,-472,nan,0.000000
1,5,11,0,5791628,148487866,1153107265637851142,1360546942.814694,15264,-2576,-1584,nan,0.000000
1,5,11,0,5791628,148487866,1153107265637853763,1360546942.814694,15284,-3112,-1464,nan,0.000000
2,5,12,0,5791628,148487897,1153107265637856384,1360546942.815280,15028,-2648,-1680,nan,0.000000
2,5,12,0,5791628,148487897,1153107265637859005,1360546942.815280,15404,-3172,-2052,nan,0.000000
2,5,12,0,5791628,148487897,1153107265637861626,1360546942.815280,16444,-3468,-2700,nan,0.000000
2,5,12,0,5791628,148487897,1153107265637864247,1360546942.815280,17120,-4292,-3668,nan,0.000000
2,5,12,0,5791628,148487897,1153107265637866868,1360546942.815280,20576,-1184,524,nan,0.000000
2,5,13,0,5791628,148487929,1153107265637869489,1360546942.816131,11840,-84,2292,nan,0.000000
2,5,13,0,5791628,148487929,1153107265637872110,1360546942.816131,18236,-544,100,nan,0.000000
2,5,13,0,5791628,148487929,1153107265637874731,1360546942.816131,14624,-952,-416,nan,0.000000
2,5,13,0,5791628,148487929,1153107265637877352,1360546942.816131,14116,-4676,-324,nan,0.000000
2,5,13,0,5791628,148487929,1153107265637879973,1360546942.816131,14792,-4280,-1520,nan,0.000000
2,5,14,0,5791628,148487961,1153107265637882594,1360546942.817226,14412,-4488,-2292,nan,0.000000
2,5,14,0,5791628,148487961,1153107265637885215,1360546942.817226,15008,-4484,-1840,nan,0.000000
2,5,14,0,5791628,148487961,1153107265637887836,1360546942.817226,16568,-4528,-2844,nan,0.000000
2,5,14,0,5791628,148487961,1153107265637890457,1360546942.817226,21104,-4808,-1040,nan,0.000000
2,5,14,0,5791628,148487961,1153107265637893078,1360546942.817226,13324,-240,1648,nan,0.000000
2,5,15,0,5791628,148487993,1153107265637895699,1360546942.817828,16344,-2848,-300,nan,0.000000
2,5,15,0,5791628,148487993,1153107265637898320,1360546942.817828,16692,-5164,-464,nan,0.000000
2,5,15,0,5791628,148487993,1153107265637900941,1360546942.817828,13780,-1904,-1244,nan,0.000000
2,5,15,0,5791628,148487993,1153107265637903562,1360546942.817828,14536,-2184,-1704,nan,0.000000
2,5,15,0,5791628,148487993,1153107265637906183,1360546942.817828,14788,-3368,-2692,nan,0.000000
2,5,0,0,5791628,148488025,1153107265637908804,1360546942.819316,15092,-3420,-3224,nan,0.000000
2,5,0,0,5791628,148488025,1153107265637911425,1360546942.819316,15148,-4248,-4344,nan,0.000000
2,5,0,0,5791628,148488025,1153107265637914046,1360546942.819316,22400,-4828,-2888,nan,0.000000
2,5,0,0,5791628,148488025,1153107265637916667,1360546942.819316,12428,1188,-56,nan,0.000000
2,5,0,0,5791628,148488025,1153107265637919288,1360546942.819316,16776,-1500,1284,nan,0.000000
2,5,1,0,5791628,148488057,1153107265637921909,1360546945.293527,16452,572,-1448,nan,0.000000
2,5,1,0,5791628,148488057,1153107265637924530,1360546945.293527,14080,-4264,-724,nan,0.000000
2,5,1,0,5791628,148488057,1153107265637927151,1360546945.293527,15076,-3636,-1784,nan,0.000000
2,5,1,0,5791628,148488057,1153107265637929772,1360546945.293527,15332,-3172,-2460,nan,0.000000
2,5,1,0,5791628,148488057,1153107265637932393,1360546945.293527,15060,-3476,-2480,nan,0.000000
1,5,2,0,5872876,148569116,3241845090300680442,1360546945.294690,20640,-804,-2044,nan,0.000000
1,5,2,0,5872876,148569116,3241845090300683063,1360546945.294690,13328,-1340,724,nan,0.000000
2,5,3,0,5872876,148569148,3241845090300685684,1360546945.295290,16316,1652,-1552,nan,0.000000
2,5,3,0,5872876,148569148,3241845090300688305,1360546945.295290,17712,-3436,-720,nan,0.000000
2,5,3,0,5872876,148569148,3241845090300690926,1360546945.295290,14496,-96,-1372,nan,0.000000
2,5,3,0,5872876,148569148,3241845090300693547,1360546945.295290,15976,-732,-1052,nan,0.000000
2,5,3,0,5872876,148569148,3241845090300696168,1360546945.295290,15944,-236,-568,nan,0.000000
2,5,4,0,5872876,148569180,3241845090300698789,1360546945.296091,16720,-308,-652,nan,0.000000
2,5,4,0,5872876,148569180,3241845090300701410,1360546945.296091,16032,-996,-856,nan,0.000000
2,5,4,0,5872876,148569180,3241845090300704031,1360546945.296091,16020,-1024,-784,nan,0.000000
2,5,4,0,5872876,148569180,3241845090300706652,1360546945.296091,16064,-996,-1344,nan,0.000000
2,5,4,0,5872876,148569180,3241845090300709273,1360546945.296091,16060,-1256,-2192,nan,0.000000
2,5,5,0,5872876,148569212,3241845090300711894,1360546945.297279,16376,-1020,-2460,nan,0.000000
2,5,5,0,5872876,148569212,3241845090300714515,1360546945.297279,18400,132,-1076,nan,0.000000
2,5,5,0,5872876,148569212,3241845090300717136,1360546945.297279,13168,-796,-504,nan,0.000000
2,5,5,0,5872876,148569212,3241845090300719757,1360546945.297279,16264,-2704,720,nan,0.000000
2,5,5,0,5872876,148569212,3241845090300722378,1360546945.297279,16296,-3144,-316,nan,0.000000
2,5,6,0,5872876,148569244,3241845090300724999,1360546945.298043,15368,-3000,-748,nan,0.000000
2,5,6,0,5872876,148569244,3241845090300727620,1360546945.298043,16184,-3712,-292,nan,0.000000
2,5,6,0,5872876,148569244,3241845090300730241,1360546945.298043,15180,-4768,-956,nan,0.000000
2,5,6,0,5872876,148569244,3241845090300732862,1360546945.298043,14564,-5400,-1760,nan,0.000000
2,5,6,0,5872876,148569244,3241845090300735483,1360546945.298043,14536,-4428,-2092,nan,0.000000
2,5,7,0,5872876,148569276,3241845090300738104,1360546945.299170,15348,-4808,-2516,nan,0.000000
2,5,7,0,5872876,148569276,3241845090300740725,1360546945.299170,16236,-4048,-3140,nan,0.000000
2,5,7,0,5872876,148569276,3241845090300743346,1360546945.299170,20680,-3588,-1800,nan,0.000000
2,5,7,0,5872876,148569276,3241845090300745967,1360546945.299170,11844,1412,2096,nan,0.000000
2,5,7,0,5872876,148569276,3241845090300748588,1360546945.299170,18516,-6700,-712,nan,0.000000
2,5,8,0,5872876,148569308,3241845090300751209,1360546947.805489,15160,-4312,-572,nan,0.000000
2,5,8,0,5872876,148569308,3241845090300753830,1360546947.805489,14160,-948,-1240,nan,0.000000
2,5,8,0,5872876,148569308,3241845090300756451,1360546947.805489,14656,-2216,-1936,nan,0.000000
2,5,8,0,5872876,148569308,3241845090300759072,1360546947.805489,14740,-3028,-2516,nan,0.000000
2,5,8,0,5872876,148569308,3241845090300761693,1360546947.805489,15960,-2672,-3348,nan,0.000000
1,5,9,0,5954125,148651420,2953038627232793853,1360546947.807310,21980,-2328,-1928,nan,0.000000
1,5,9,0,5954125,148651420,2953038627232796474,1360546947.807310,12988,460,572,nan,0.000000
2,5,10,0,5954125,148651452,2953038627232799095,1360546947.807711,15952,-2388,2220,nan,0.000000
2,5,10,0,5954125,148651452,2953038627232801716,1360546947.807711,16452,360,-736,nan,0.000000
2,5,10,0,5954125,148651452,2953038627232804337,1360546947.807711,14316,-3740,-892,nan,0.000000
2,5,10,0,5954125,148651452,2953038627232806958,1360546947.807711,14672,-3764,-1488,nan,0.000000
2,5,10,0,5954125,148651452,2953038627232809579,1360546947.807711,15096,-3332,-2628,nan,0.000000
2,5,11,0,5954125,148651484,2953038627232812200,1360546947.808744,14724,-4128,-2824,nan,0.000000
2,5,11,0,5954125,148651484,2953038627232814821,1360546947.808744,15516,-4228,-2520,nan,0.000000
2,5,11,0,5954125,148651484,2953038627232817442,1360546947.808744,17888,-5048,-3384,nan,0.000000
2,5,11,0,5954125,148651484,2953038627232820063,1360546947.808744,17968,-4064,-840,nan,0.000000
2,5,11,0,5954125,148651484,2953038627232822684,1360546947.808744,12664,1252,600,nan,0.000000
2,5,12,0,5954125,148651516,2953038627232825305,1360546947.809488,17860,-7068,-2252,nan,0.000000
2,5,12,0,5954125,148651516,2953038627232827926,1360546947.809488,14916,-4224,-1052,nan,0.000000
2,5,12,0,5954125,148651516,2953038627232830547,1360546947.809488,14280,-1920,-1024,nan,0.000000
2,5,12,0,5954125,148651516,2953038627232833168,1360546947.809488,15276,-3148,-2436,nan,0.000000
2,5,12,0,5954125,148651516,2953038627232835789,1360546947.809488,15076,-4164,-2344,nan,0.000000
2,5,13,0,5954125,148651548,2953038627232838410,1360546947.810232,15244,-3916,-2360,nan,0.000000
2,5,13,0,5954125,148651548,2953038627232841031,1360546947.810232,15688,-3060,-3512,nan,0.000000
2,5,13,0,5954125,148651548,2953038627232843652,1360546947.810232,19236,-4688,-1936,nan,0.000000
2,5,13,0,5954125,148651548,2953038627232846273,1360546947.810232,15416,-1432,624,nan,0.000000
2,5,13,0,5954125,148651548,2953038627232848894,1360546947.810232,13016,-4672,2668,nan,0.000000
2,5,14,0,5954125,148651580,2953038627232851515,1360546947.811102,17240,-2732,2148,nan,0.000000
2,5,14,0,5954125,148651580,2953038627232854136,1360546947.811102,15264,-2764,892,nan,0.000000
2,5,14,0,5954125,148651580,2953038627232856757,1360546947.811102,14680,-3956,944,nan,0.000000
2,5,14,0,5954125,148651580,2953038627232859378,1360546947.811102,15956,-3700,1148,nan,0.000000
2,5,14,0,5954125,148651580,2953038627232861999,1360546947.811102,15516,-4136,1304,nan,0.000000
2,5,15,0,5954125,148651612,2953038627232864620,1360546950.253407,15512,-4708,924,nan,0.000000
2,5,15,0,5954125,148651612,2953038627232867241,1360546950.253407,15580,-4216,568,nan,0.000000
2,5,15,0,5954125,148651612,2953038627232869862,1360546950.253407,16436,-3444,1116,nan,0.000000
2,5,15,0,5954125,148651612,2953038627232872483,1360546950.253407,16424,-3436,1000,nan,0.000000
2,5,15,0,5954125,148651612,2953038627232875104,1360546950.253407,15060,-2304,2212,nan,0.000000
1,5,0,0,6035374,148731622,4035938779850906627,1360546950.254554,15856,-3568,-120,nan,0.000000
1,5,0,0,6035374,148731622,4035938779850909248,1360546950.254554,14916,-3084,-420,nan,0.000000
2,5,1,0,6035374,148731654,4035938779850911869,1360546950.255083,15696,-2688,-392,nan,0.000000
2,5,1,0,6035374,148731654,4035938779850914490,1360546950.255083,15400,-2484,-532,nan,0.000000
2,5,1,0,6035374,148731654,4035938779850917111,1360546950.255083,15980,-2476,-1044,nan,0.000000
2,5,1,0,6035374,148731654,4035938779850919732,1360546950.255083,16888,-3852,668,nan,0.000000
2,5,1,0,6035374,148731654,4035938779850922353,1360546950.255083,13804,-3996,2888,nan,0.000000
2,5,2,0,6035374,148731686,4035938779850924974,1360546950.255970,16516,-3072,1292,nan,0.000000
2,5,2,0,6035374,148731686,4035938779850927595,1360546950.255970,15672,-2776,204,nan,0.000000
2,5,2,0,6035374,148731686,4035938779850930216,1360546950.255970,15204,-4420,764,nan,0.000000
2,5,2,0,6035374,148731686,4035938779850932837,1360546950.255970,15708,-3428,612,nan,0.000000
2,5,2,0,6035374,148731686,4035938779850935458,1360546950.255970,15376,-4284,-76,nan,0.000000
2,5,3,0,6035374,148731718,4035938779850938079,1360546950.257121,15324,-4448,-84,nan,0.000000
2,5,3,0,6035374,148731718,4035938779850940700,1360546950.257121,15604,-4632,352,nan,0.000000
2,5,3,0,6035374,148731718,4035938779850943321,1360546950.257121,15184,-5464,284,nan,0.000000
2,5,3,0,6035374,148731718,4035938779850945942,1360546950.257121,16564,-5872,28,nan,0.000000
2,5,3,0,6035374,148731718,4035938779850948563,1360546950.257121,17632,-4204,392,nan,0.000000
2,5,4,0,6035374,148731750,4035938779850951184,1360546950.258064,13964,1408,-372,nan,0.000000
2,5,4,0,6035374,148731750,4035938779850953805,1360546950.258064,17924,-3920,-2128,nan,0.000000
2,5,4,0,6035374,148731750,4035938779850956426,1360546950.258064,15000,-1316,-1732,nan,0.000000
2,5,4,0,6035374,148731750,4035938779850959047,1360546950.258064,14868,-2220,-1488,nan,0.000000
2,5,4,0,6035374,148731750,4035938779850961668,1360546950.258064,15032,-2576,-2528,nan,0.000000
2,5,5,0,6035374,148731782,4035938779850964289,1360546950.259069,14924,-2708,-2796,nan,0.000000
2,5,5,0,6035374,148731782,4035938779850966910,1360546950.259069,15488,-2928,-3228,nan,0.000000
2,5,5,0,6035374,148731782,4035938779850969531,1360546950.259069,16716,-1812,-4620,nan,0.000000
2,5,5,0,6035374,148731782,4035938779850972152,1360546950.259069,16796,-2964,-4744,nan,0.000000
2,5,5,0,6035374,148731782,4035938779850974773,1360546950.259069,18780,-1832,-856,nan,0.000000
2,5,6,0,6035374,148731814,4035938779850977394,1360546952.733479,12576,-2116,1748,nan,0.000000
2,5,6,0,6035374,148731814,4035938779850980015,1360546952.733479,17992,-1212,-776,nan,0.000000
2,5,6,0,6035374,148731814,4035938779850982636,1360546952.733479,14740,-1448,-1288,nan,0.000000
2,5,6,0,6035374,148731814,4035938779850985257,1360546952.733479,13544,-4024,-1100,nan,0.000000
2,5,6,0,6035374,148731814,4035938779850987878,1360546952.733479,15520,-3388,-1996,nan,0.000000
1,5,7,0,6116622,148812876,-505453212132256762,1360546952.734774,15468,-5472,-2632,nan,0.000000
1,5,7,0,6116622,148812876,-505453212132254141,1360546952.734774,16164,-5576,-2628,nan,0.000000
2,5,8,0,6116622,148812907,-505453212132251520,1360546952.735304,19812,-3408,-1404,nan,0.000000
2,5,8,0,6116622,148812907,-505453212132248899,1360546952.735304,13712,1268,980,nan,0.000000
2,5,8,0,6116622,148812907,-505453212132246278,1360546952.735304,16848,-3740,-1680,nan,0.000000
2,5,8,0,6116622,148812907,-505453212132243657,1360546952.735304,15904,-5528,-628,nan,0.000000
2,5,8,0,6116622,148812907,-505453212132241036,1360546952.735304,14408,-1224,-1104,nan,0.000000
2,5,9,0,6116622,148812939,-505453212132238415,1360546952.736279,14672,-1996,-1836,nan,0.000000
2,5,9,0,6116622,148812939,-505453212132235794,1360546952.736279,14984,-3636,-2404,nan,0.000000
2,5,9,0,6116622,148812939,-505453212132233173,1360546952.736279,15308,-3292,-2876,nan,0.000000
2,5,9,0,6116622,148812939,-505453212132230552,1360546952.736279,16140,-4172,-4208,nan,0.000000
2,5,9,0,6116622,148812939,-505453212132227931,1360546952.736279,22312,-2364,-532,nan,0.000000
2,5,10,0,6116622,148812972,-505453212132225310,1360546952.737119,11996,-528,448,nan,0.000000
2,5,10,0,6116622,148812972,-505453212132222689,1360546952.737119,16924,-1316,1804,nan,0.000000
2,5,10,0,6116622,148812972,-505453212132220068,1360546952.737119,16416,132,-1124,nan,0.000000
2,5,10,0,6116622,148812972,-505453212132217447,1360546952.737119,14476,-3784,-880,nan,0.000000
2,5,10,0,6116622,148812972,-505453212132214826,1360546952.737119,15276,-2484,-1496,nan,0.000000
2,5,11,0,6116622,148813003,-505453212132212205,1360546952.737922,15416,-2820,-2040,nan,0.000000
2,5,11,0,6116622,148813003,-505453212132209584,1360546952.737922,15316,-3800,-2044,nan,0.000000
2,5,11,0,6116622,148813003,-505453212132206963,1360546952.737922,15172,-4484,-1592,nan,0.000000
2,5,11,0,6116622,148813003,-505453212132204342,1360546952.737922,18380,-1436,-1560,nan,0.000000
2,5,11,0,6116622,148813003,-505453212132201721,1360546952.737922,16140,-1248,8,nan,0.000000
2,5,12,0,6116622,148813036,-505453212132199100,1360546952.738598,14224,404,784,nan,0.000000
2,5,12,0,6116622,148813036,-505453212132196479,1360546952.738598,18664,-2900,220,nan,0.000000
2,5,12,0,6116622,148813036,-505453212132193858,1360546952.738598,15896,-304,-516,nan,0.000000
2,5,12,0,6116622,148813036,-505453212132191237,1360546952.738598,14668,-216,16,nan,0.000000
2,5,12,0,6116622,148813036,-505453212132188616,1360546952.738598,16728,-860,-652,nan,0.000000
1,5,14,0,6197870,148975380,-1371164695632980740,1360546957.693213,13124,-2220,-20,nan,0.000000
1,5,14,0,6197870,148975380,-1371164695632978119,1360546957.693213,17696,-3624,-60,nan,0.000000
2,5,15,0,6197870,148975412,-1371164695632975498,1360546957.694117,14480,-4160,-852,nan,0.000000
2,5,15,0,6197870,148975412,-1371164695632972877,1360546957.694117,15380,-3708,-1160,nan,0.000000
2,5,15,0,6197870,148975412,-1371164695632970256,1360546957.694117,15728,-4156,-1044,nan,0.000000
2,5,15,0,6197870,148975412,-1371164695632967635,1360546957.694117,14940,-4568,-1932,nan,0.000000
2,5,15,0,6197870,148975412,-1371164695632965014,1360546957.694117,14996,-4564,-1840,nan,0.000000
2,5,0,0,6197870,148975444,-1371164695632962393,1360546957.695062,15320,-5072,-2152,nan,0.000000
2,5,0,0,6197870,148975444,-1371164695632959772,1360546957.695062,15856,-5348,-3476,nan,0.000000
2,5,0,0,6197870,148975444,-1371164695632957151,1360546957.695062,18676,-4548,-1872,nan,0.000000
2,5,0,0,6197870,148975444,-1371164695632954530,1360546957.695062,15188,-764,980,nan,0.000000
2,5,0,0,6197870,148975444,-1371164695632951909,1360546957.695062,14832,-1544,-120,nan,0.000000
2,5,1,0,6197870,148975476,-1371164695632949288,1360546957.695920,16904,-7312,-756,nan,0.000000
2,5,1,0,6197870,148975476,-1371164695632946667,1360546957.695920,14444,-1884,-1152,nan,0.000000
2,5,1,0,6197870,148975476,-1371164695632944046,1360546957.695920,14340,-2796,-1292,nan,0.000000
2,5,1,0,6197870,148975476,-1371164695632941425,1360546957.695920,15244,-3712,-2564,nan,0.000000
2,5,1,0,6197870,148975476,-1371164695632938804,1360546957.695920,14964,-3924,-2844,nan,0.000000
2,5,2,0,6197870,148975508,-1371164695632936183,1360546957.696904,15900,-2788,-3712,nan,0.000000
2,5,2,0,6197870,148975508,-1371164695632933562,1360546957.696904,16200,-4068,-4408,nan,0.000000
2,5,2,0,6197870,148975508,-1371164695632930941,1360546957.696904,20604,-1748,-16,nan,0.000000
2,5,2,0,6197870,148975508,-1371164695632928320,1360546957.696904,12076,-2320,1092,nan,0.000000
2,5,2,0,6197870,148975508,-1371164695632925699,1360546957.696904,17532,-1180,220,nan,0.000000
2,5,3,0,6197870,148975540,-1371164695632923078,1360546957.698327,15832,-688,-1080,nan,0.000000
2,5,3,0,6197870,148975540,-1371164695632920457,1360546957.698327,13700,-4656,-1228,nan,0.000000
2,5,3,0,6197870,148975540,-1371164695632917836,1360546957.698327,15008,-4148,-2292,nan,0.000000
2,5,3,0,6197870,148975540,-1371164695632915215,1360546957.698327,14684,-4004,-3012,nan,0.000000
2,5,3,0,6197870,148975540,-1371164695632912594,1360546957.698327,14884,-4272,-2564,nan,0.000000
2,5,4,0,6197870,148975572,-1371164695632909973,1360546957.699215,15756,-5408,-3456,nan,0.000000
2,5,4,0,6197870,148975572,-1371164695632907352,1360546957.699215,18460,-4624,-2988,nan,0.000000
2,5,4,0,6197870,148975572,-1371164695632904731,1360546957.699215,15276,-1324,1448,nan,0.000000
2,5,4,0,6197870,148975572,-1371164695632902110,1360546957.699215,17188,-3264,-2156,nan,0.000000
2,5,4,0,6197870,148975572,-1371164695632899489,1360546957.699215,15072,-7800,-452,nan,0.000000
1,5,5,0,6279120,148975604,6121782694675775730,1360546957.699903,15244,-2480,-1736,nan,0.000000
1,5,5,15,6279120,148975604,6121782694675778351,1360546957.699903,14604,-4112,-2652,nan,0.000000
2,5,6,15,6279120,148975636,6121782694675780972,1360546957.700845,14864,-3848,-2740,nan,0.000000
2,5,6,15,6279120,148975636,6121782694675783593,1360546957.700845,15472,-3380,-3536,nan,0.000000
2,5,6,15,6279120,148975636,6121782694675786214,1360546957.700845,20728,-4616,84,nan,0.000000
2,5,6,15,6279120,148975636,6121782694675788835,1360546957.700845,12704,-1736,-1704,nan,0.000000
2,5,6,15,6279120,148975636,6121782694675791456,1360546957.700845,14016,-5364,2644,nan,0.000000
2,5,7,15,6279120,148975668,6121782694675794077,1360546957.701598,17624,-2348,708,nan,0.000000
2,5,7,15,6279120,148975668,6121782694675796698,1360546957.701598,15116,-3616,504,nan,0.000000
2,5,7,15,6279120,148975668,6121782694675799319,1360546957.701598,14668,-4856,492,nan,0.000000
2,5,7,15,6279120,148975668,6121782694675801940,1360546957.701598,15708,-3944,620,nan,0.000000
2,5,7,15,6279120,148975668,6121782694675804561,1360546957.701598,15188,-4320,256,nan,0.000000
2,5,8,15,6279120,148975700,6121782694675807182,1360546957.702842,14956,-5028,272,nan,0.000000
2,5,8,15,6279120,148975700,6121782694675809803,1360546957.702842,15280,-5524,-512,nan,0.000000
2,5,8,15,6279120,148975700,6121782694675812424,1360546957.702842,18992,-5384,424,nan,0.000000
2,5,8,15,6279120,148975700,6121782694675815045,1360546957.702842,14532,-3808,596,nan,0.000000
2,5,8,15,6279120,148975700,6121782694675817666,1360546957.702842,14012,-572,1112,nan,0.000000
2,5,9,15,6279120,148975732,6121782694675820287,1360546957.703631,18832,-5528,-1116,nan,0.000000
2,5,9,15,6279120,148975732,6121782694675822908,1360546957.703631,14500,-3124,188,nan,0.000000
2,5,9,15,6279120,148975732,6121782694675825529,1360546957.703631,15588,-2828,-248,nan,0.000000
2,5,9,15,6279120,148975732,6121782694675828150,1360546957.703631,15680,-3444,-936,nan,0.000000
2,5,9,15,6279120,148975732,6121782694675830771,1360546957.703631,15368,-3312,-528,nan,0.000000
2,5,10,15,6279120,148975764,6121782694675833392,1360546957.705144,16036,-2380,-1288,nan,0.000000
2,5,10,15,6279120,148975764,6121782694675836013,1360546957.705144,16176,-3512,-1228,nan,0.000000
2,5,10,15,6279120,148975764,6121782694675838634,1360546957.705144,15744,-3592,2848,nan,0.000000
2,5,10,15,6279120,148975764,6121782694675841255,1360546957.705144,14328,-3956,2112,nan,0.000000
2,5,10,15,6279120,148975764,6121782694675843876,1360546957.705144,16320,-3344,288,nan,0.000000
1,5,12,0,6360370,149137889,5766266621324367875,1360546962.653203,15880,-5576,316,nan,0.000000
1,5,12,1,6360370,149137889,5766266621324370496,1360546962.653203,16600,-6320,48,nan,0.000000
2,5,13,1,6360370,149137921,5766266621324373117,1360546962.654419,16600,-4152,488,nan,0.000000
2,5,13,1,6360370,149137921,5766266621324375738,1360546962.654419,14716,648,1164,nan,0.000000
2,5,13,1,6360370,149137921,5766266621324378359,1360546962.654419,16504,-312,-1144,nan,0.000000
2,5,13,1,6360370,149137921,5766266621324380980,1360546962.654419,16516,-4560,-688,nan,0.000000
2,5,13,1,6360370,149137921,5766266621324383601,1360546962.654419,14728,-1384,-1012,nan,0.000000
2,5,14,1,6360370,149137952,5766266621324386222,1360546962.655708,15196,-2244,-1160,nan,0.000000
2,5,14,1,6360370,149137952,5766266621324388843,1360546962.655708,15316,-2916,-1804,nan,0.000000
2,5,14,1,6360370,149137952,5766266621324391464,1360546962.655708,15216,-3212,-1976,nan,0.000000
2,5,14,1,6360370,149137952,5766266621324394085,1360546962.655708,16708,-3180,-3012,nan,0.000000
2,5,14,1,6360370,149137952,5766266621324396706,1360546962.655708,17308,-3376,-3940,nan,0.000000
2,5,15,1,6360370,149137984,5766266621324399327,1360546962.656550,19524,-1128,840,nan,0.000000
2,5,15,1,6360370,149137984,5766266621324401948,1360546962.656550,12508,-1600,2332,nan,0.000000
2,5,15,1,6360370,149137984,5766266621324404569,1360546962.656550,17424,-1972,-48,nan,0.000000
2,5,15,1,6360370,149137984,5766266621324407190,1360546962.656550,14564,-2088,-896,nan,0.000000
2,5,15,1,6360370,149137984,5766266621324409811,1360546962.656550,14264,-4260,-480,nan,0.000000
2,5,0,1,6360370,149138017,5766266621324412432,1360546962.657411,15076,-4352,-1916,nan,0.000000
2,5,0,1,6360370,149138017,5766266621324415053,1360546962.657411,14440,-4244,-2352,nan,0.000000
2,5,0,1,6360370,149138017,5766266621324417674,1360546962.657411,15068,-5028,-1684,nan,0.000000
2,5,0,1,6360370,149138017,5766266621324420295,1360546962.657411,16068,-5312,-3300,nan,0.000000
2,5,0,1,6360370,149138017,5766266621324422916,1360546962.657411,16724,-6040,-3808,nan,0.000000
2,5,1,1,6360370,149138048,5766266621324425537,1360546962.657922,17304,-3316,-256,nan,0.000000
2,5,1,1,6360370,149138048,5766266621324428158,1360546962.657922,14752,792,104,nan,0.000000
2,5,1,1,6360370,149138048,5766266621324430779,1360546962.657922,16340,-7772,-1284,nan,0.000000
2,5,1,1,6360370,149138048,5766266621324433400,1360546962.657922,14776,-2796,-844,nan,0.000000
2,5,1,1,6360370,149138048,5766266621324436021,1360546962.657922,14544,-1504,-1456,nan,0.000000
2,5,2,1,6360370,149138080,5766266621324438642,1360546962.658425,15148,-3836,-2028,nan,0.000000
2,5,2,1,6360370,149138080,5766266621324441263,1360546962.658425,14980,-4032,-2116,nan,0.000000
2,5,2,1,6360370,149138080,5766266621324443884,1360546962.658425,15884,-3604,-3000,nan,0.000000
2,5,2,1,6360370,149138080,5766266621324446505,1360546962.658425,19228,-5280,-2948,nan,0.000000
2,5,2,1,6360370,149138080,5766266621324449126,1360546962.658425,15752,-460,784,nan,0.000000
1,5,3,0,6441619,149138112,-4830320673576839944,1360546962.659704,17272,-1544,-224,nan,0.000000
1,5,3,15,6441619,149138112,-4830320673576837323,1360546962.659704,14696,-2988,-524,nan,0.000000
2,5,4,15,6441619,149138144,-4830320673576834702,1360546962.665133,14832,-4024,-176,nan,0.000000
2,5,4,15,6441619,149138144,-4830320673576832081,1360546962.665133,15856,-3636,-404,nan,0.000000
2,5,4,15,6441619,149138144,-4830320673576829460,1360546962.665133,15384,-3512,-576,nan,0.000000
2,5,4,15,6441619,149138144,-4830320673576826839,1360546962.665133,14904,-5152,-176,nan,0.000000
2,5,4,15,6441619,149138144,-4830320673576824218,1360546962.665133,15204,-4688,-180,nan,0.000000
2,5,5,15,6441619,149138176,-4830320673576821597,1360546962.668064,16848,-4372,-240,nan,0.000000
2,5,5,15,6441619,149138176,-4830320673576818976,1360546962.668064,17772,-4132,444,nan,0.000000
2,5,5,15,6441619,149138176,-4830320673576816355,1360546962.668064,13292,-2352,2360,nan,0.000000
2,5,5,15,6441619,149138176,-4830320673576813734,1360546962.668064,16444,-1916,420,nan,0.000000
2,5,5,15,6441619,149138176,-4830320673576811113,1360546962.668064,17340,-4016,524,nan,0.000000
2,5,6,15,6441619,149138208,-4830320673576808492,1360546962.669675,15024,-2652,1356,nan,0.000000
2,5,6,15,6441619,149138208,-4830320673576805871,1360546962.669675,15972,-2736,1048,nan,0.000000
2,5,6,15,6441619,149138208,-4830320673576803250,1360546962.669675,16236,-3344,380,nan,0.000000
2,5,6,15,6441619,149138208,-4830320673576800629,1360546962.669675,15380,-3392,888,nan,0.000000
2,5,6,15,6441619,149138208,-4830320673576798008,1360546962.669675,15236,-2756,648,nan,0.000000
2,5,7,15,6441619,149138240,-4830320673576795387,1360546962.672869,15624,-3088,-304,nan,0.000000
2,5,7,15,6441619,149138240,-4830320673576792766,1360546962.672869,15680,-3532,784,nan,0.000000
2,5,7,15,6441619,149138240,-4830320673576790145,1360546962.672869,16220,-2596,3380,nan,0.000000
2,5,7,15,6441619,149138240,-4830320673576787524,1360546962.672869,14812,-3480,1232,nan,0.000000
2,5,7,15,6441619,149138240,-4830320673576784903,1360546962.672869,16316,-3540,1312,nan,0.000000
2,5,8,15,6441619,149138272,-4830320673576782282,1360546962.684793,15348,-3648,1296,nan,0.000000
2,5,8,15,6441619,149138272,-4830320673576779661,1360546962.684793,15252,-3508,1592,nan,0.000000
2,5,8,15,6441619,149138272,-4830320673576777040,1360546962.684793,15820,-4188,1332,nan,0.000000
2,5,8,15,6441619,149138272,-4830320673576774419,1360546962.684793,15320,-4220,1240,nan,0.000000
2,5,8,15,6441619,149138272,-4830320673576771798,1360546962.684793,15220,-4760,1260,nan,0.000000
1,5,10,0,6522867,149300392,4324850823281612803,1360546967.611085,14812,-1120,-300,nan,0.000000
1,5,10,1,6522867,149300392,4324850823281615424,1360546967.611085,15604,-1336,-644,nan,0.000000
2,5,11,1,6522867,149300423,4324850823281618045,1360546967.612646,15540,-2756,-1392,nan,0.000000
2,5,11,1,6522867,149300423,4324850823281620666,1360546967.612646,14960,-2556,-1332,nan,0.000000
2,5,11,1,6522867,149300423,4324850823281623287,1360546967.612646,16168,-2440,-2316,nan,0.000000
2,5,11,1,6522867,149300423,4324850823281625908,1360546967.612646,15996,-3920,-3860,nan,0.000000
2,5,11,1,6522867,149300423,4324850823281628529,1360546967.612646,20420,-3328,-288,nan,0.000000
2,5,12,1,6522867,149300456,4324850823281631150,1360546967.613724,13388,-1236,1512,nan,0.000000
2,5,12,1,6522867,149300456,4324850823281633771,1360546967.613724,17632,-56,1480,nan,0.000000
2,5,12,1,6522867,149300456,4324850823281636392,1360546967.613724,14940,748,-1060,nan,0.000000
2,5,12,1,6522867,149300456,4324850823281639013,1360546967.613724,14332,-3700,-648,nan,0.000000
2,5,12,1,6522867,149300456,4324850823281641634,1360546967.613724,15292,-2960,-1544,nan,0.000000
2,5,13,1,6522867,149300487,4324850823281644255,1360546967.614630,15076,-3656,-2228,nan,0.000000
2,5,13,1,6522867,149300487,4324850823281646876,1360546967.614630,14984,-4092,-2140,nan,0.000000
2,5,13,1,6522867,149300487,4324850823281649497,1360546967.614630,15700,-4820,-2920,nan,0.000000
2,5,13,1,6522867,149300487,4324850823281652118,1360546967.614630,20580,-4524,-1008,nan,0.000000
2,5,13,1,6522867,149300487,4324850823281654739,1360546967.614630,14044,-24,960,nan,0.000000
2,5,14,1,6522867,149300520,4324850823281657360,1360546967.615483,16136,-2752,-1764,nan,0.000000
2,5,14,1,6522867,149300520,4324850823281659981,1360546967.615483,16104,-5380,-300,nan,0.000000
2,5,14,1,6522867,149300520,4324850823281662602,1360546967.615483,14416,-1376,-952,nan,0.000000
2,5,14,1,6522867,149300520,4324850823281665223,1360546967.615483,15032,-2208,-2108,nan,0.000000
2,5,14,1,6522867,149300520,4324850823281667844,1360546967.615483,15180,-3444,-2536,nan,0.000000
2,5,15,1,6522867,149300551,4324850823281670465,1360546967.616604,14692,-3340,-2668,nan,0.000000
2,5,15,1,6522867,149300551,4324850823281673086,1360546967.616604,15096,-3072,-3416,nan,0.000000
2,5,15,1,6522867,149300551,4324850823281675707,1360546967.616604,16104,-4452,-4008,nan,0.000000
2,5,15,1,6522867,149300551,4324850823281678328,1360546967.616604,21480,-1724,-668,nan,0.000000
2,5,15,1,6522867,149300551,4324850823281680949,1360546967.616604,12376,-1180,-12,nan,0.000000
2,5,0,1,6522867,149300584,4324850823281683570,1360546967.617175,17124,-1072,1720,nan,0.000000
2,5,0,1,6522867,149300584,4324850823281686191,1360546967.617175,16124,12,-1608,nan,0.000000
2,5,0,1,6522867,149300584,4324850823281688812,1360546967.617175,14700,-2924,-700,nan,0.000000
2,5,0,1,6522867,149300584,4324850823281691433,1360546967.617175,15748,-1912,-1336,nan,0.000000
2,5,0,1,6522867,149300584,4324850823281694054,1360546967.617175,15584,-3480,-2084,nan,0.000000
1,5,1,0,6604116,149300615,-5118046303158355962,1360546967.618653,15180,-4208,-1524,nan,0.000000
1,5,1,15,6604116,149300615,-5118046303158353341,1360546967.618653,16352,-2784,-1672,nan,0.000000
2,5,2,15,6604116,149300648,-5118046303158350720,1360546967.619346,18744,-1572,-532,nan,0.000000
2,5,2,15,6604116,149300648,-5118046303158348099,1360546967.619346,13532,584,1056,nan,0.000000
2,5,2,15,6604116,149300648,-5118046303158345478,1360546967.619346,17700,-1940,-1216,nan,0.000000
2,5,2,15,6604116,149300648,-5118046303158342857,1360546967.619346,16504,-1560,-1352,nan,0.000000
2,5,2,15,6604116,149300648,-5118046303158340236,1360546967.619346,14700,412,-8,nan,0.000000
2,5,3,15,6604116,149300679,-5118046303158337615,1360546967.623426,16712,-1060,-896,nan,0.000000
2,5,3,15,6604116,149300679,-5118046303158334994,1360546967.623426,15816,-1120,-496,nan,0.000000
2,5,3,15,6604116,149300679,-5118046303158332373,1360546967.623426,15952,-1048,-824,nan,0.000000
2,5,3,15,6604116,149300679,-5118046303158329752,1360546967.623426,16072,-604,-1380,nan,0.000000
2,5,3,15,6604116,149300679,-5118046303158327131,1360546967.623426,15940,-488,-1516,nan,0.000000
2,5,4,15,6604116,149300712,-5118046303158324510,1360546967.627323,16044,-700,-2076,nan,0.000000
2,5,4,15,6604116,149300712,-5118046303158321889,1360546967.627323,16320,188,-2832,nan,0.000000
2,5,4,15,6604116,149300712,-5118046303158319268,1360546967.627323,17364,600,-2456,nan,0.000000
2,5,4,15,6604116,149300712,-5118046303158316647,1360546967.627323,17196,36,-1600,nan,0.000000
2,5,4,15,6604116,149300712,-5118046303158314026,1360546967.627323,14672,-368,-1976,nan,0.000000
2,5,5,15,6604116,149300743,-5118046303158311405,1360546967.629959,15424,-1148,312,nan,0.000000
2,5,5,15,6604116,149300743,-5118046303158308784,1360546967.629959,16788,-656,1080,nan,0.000000
2,5,5,15,6604116,149300743,-5118046303158306163,1360546967.629959,16640,-2072,-776,nan,0.000000
2,5,5,15,6604116,149300743,-5118046303158303542,1360546967.629959,14996,-2608,-1124,nan,0.000000
2,5,5,15,6604116,149300743,-5118046303158300921,1360546967.629959,15744,-3244,-1452,nan,0.000000
2,5,6,15,6604116,149300775,-5118046303158298300,1360546967.634241,15540,-3656,-2528,nan,0.000000
2,5,6,15,6604116,149300775,-5118046303158295679,1360546967.634241,14772,-3984,-3040,nan,0.000000
2,5,6,15,6604116,149300775,-5118046303158293058,1360546967.634241,14628,-4432,-3128,nan,0.000000
2,5,6,15,6604116,149300775,-5118046303158290437,1360546967.634241,15068,-4284,-3472,nan,0.000000
2,5,6,15,6604116,149300775,-5118046303158287816,1360546967.634241,15612,-4468,-4560,nan,0.000000
1,5,8,0,6685363,149544149,-4033879458653507341,1360546975.050750,14888,-3152,-2332,nan,0.000000
1,5,8,1,6685363,149544149,-4033879458653504720,1360546975.050750,15484,-3312,-3140,nan,0.000000
2,5,9,1,6685363,149544181,-4033879458653502099,1360546975.051750,16412,-3788,-4028,nan,0.000000
2,5,9,1,6685363,149544181,-4033879458653499478,1360546975.051750,19528,-3884,-2880,nan,0.000000
2,5,9,1,6685363,149544181,-4033879458653496857,1360546975.051750,15532,-112,-372,nan,0.000000
2,5,9,1,6685363,149544181,-4033879458653494236,1360546975.051750,14748,-2568,2808,nan,0.000000
2,5,9,1,6685363,149544181,-4033879458653491615,1360546975.051750,16720,-64,-736,nan,0.000000
2,5,10,1,6685363,149544213,-4033879458653488994,1360546975.052753,15084,-2964,-652,nan,0.000000
2,5,10,1,6685363,149544213,-4033879458653486373,1360546975.052753,14132,-3836,-820,nan,0.000000
2,5,10,1,6685363,149544213,-4033879458653483752,1360546975.052753,15224,-3756,-2388,nan,0.000000
2,5,10,1,6685363,149544213,-4033879458653481131,1360546975.052753,14740,-4192,-2660,nan,0.000000
2,5,10,1,6685363,149544213,-4033879458653478510,1360546975.052753,15024,-4484,-2256,nan,0.000000
2,5,11,1,6685363,149544245,-4033879458653475889,1360546975.053592,15816,-5060,-3244,nan,0.000000
2,5,11,1,6685363,149544245,-4033879458653473268,1360546975.053592,18628,-5096,-1996,nan,0.000000
2,5,11,1,6685363,149544245,-4033879458653470647,1360546975.053592,15512,-988,440,nan,0.000000
2,5,11,1,6685363,149544245,-4033879458653468026,1360546975.053592,15380,-1216,-1360,nan,0.000000
2,5,11,1,6685363,149544245,-4033879458653465405,1360546975.053592,16668,-7732,-1204,nan,0.000000
2,5,12,1,6685363,149544277,-4033879458653462784,1360546975.054462,14816,-1688,-856,nan,0.000000
2,5,12,1,6685363,149544277,-4033879458653460163,1360546975.054462,15100,-2668,-1524,nan,0.000000
2,5,12,1,6685363,149544277,-4033879458653457542,1360546975.054462,15468,-3700,-2400,nan,0.000000
2,5,12,1,6685363,149544277,-4033879458653454921,1360546975.054462,15408,-4000,-1836,nan,0.000000
2,5,12,1,6685363,149544277,-4033879458653452300,1360546975.054462,15152,-3552,-2240,nan,0.000000
2,5,13,1,6685363,149544309,-4033879458653449679,1360546975.055423,15452,-2732,-3072,nan,0.000000
2,5,13,1,6685363,149544309,-4033879458653447058,1360546975.055423,16596,-2520,-2536,nan,0.000000
2,5,13,1,6685363,149544309,-4033879458653444437,1360546975.055423,16976,-4548,1180,nan,0.000000
2,5,13,1,6685363,149544309,-4033879458653441816,1360546975.055423,13532,-2412,1328,nan,0.000000
2,5,13,1,6685363,149544309,-4033879458653439195,1360546975.055423,16616,-5780,1668,nan,0.000000
2,5,14,1,6685363,149544341,-4033879458653436574,1360546975.056470,15400,-3360,600,nan,0.000000
2,5,14,1,6685363,149544341,-4033879458653433953,1360546975.056470,15504,-3676,1016,nan,0.000000
2,5,14,1,6685363,149544341,-4033879458653431332,1360546975.056470,15348,-4424,1172,nan,0.000000
2,5,14,1,6685363,149544341,-4033879458653428711,1360546975.056470,16020,-3756,1784,nan,0.000000
2,5,14,1,6685363,149544341,-4033879458653426090,1360546975.056470,15680,-3748,1868,nan,0.000000
1,5,15,0,6766612,149544373,-575434969959344126,1360546975.056994,15468,-4652,1856,nan,0.000000
1,5,15,15,6766612,149544373,-575434969959341505,1360546975.056994,15064,-5328,1480,nan,0.000000
2,5,0,15,6766612,149544405,-575434969959338884,1360546975.058476,14692,-5780,1664,nan,0.000000
2,5,0,15,6766612,149544405,-575434969959336263,1360546975.058476,15840,-4420,1908,nan,0.000000
2,5,0,15,6766612,149544405,-575434969959333642,1360546975.058476,16112,-4996,416,nan,0.000000
2,5,0,15,6766612,149544405,-575434969959331021,1360546975.058476,15040,-1748,1172,nan,0.000000
2,5,0,15,6766612,149544405,-575434969959328400,1360546975.058476,18568,-2944,-1468,nan,0.000000
2,5,1,15,6766612,149544437,-575434969959325779,1360546975.059238,15232,-168,16,nan,0.000000
2,5,1,15,6766612,149544437,-575434969959323158,1360546975.059238,15192,-1840,-896,nan,0.000000
2,5,1,15,6766612,149544437,-575434969959320537,1360546975.059238,15580,-3272,-1312,nan,0.000000
2,5,1,15,6766612,149544437,-575434969959317916,1360546975.059238,15032,-3204,-1496,nan,0.000000
2,5,1,15,6766612,149544437,-575434969959315295,1360546975.059238,15184,-2932,-1468,nan,0.000000
2,5,2,15,6766612,149544469,-575434969959312674,1360546975.060441,15736,-3120,-2044,nan,0.000000
2,5,2,15,6766612,149544469,-575434969959310053,1360546975.060441,16400,-3244,-2936,nan,0.000000
2,5,2,15,6766612,149544469,-575434969959307432,1360546975.060441,16744,-3948,-3724,nan,0.000000
2,5,2,15,6766612,149544469,-575434969959304811,1360546975.060441,18972,-1344,312,nan,0.000000
2,5,2,15,6766612,149544469,-575434969959302190,1360546975.060441,13516,-1092,1844,nan,0.000000
2,5,3,15,6766612,149544501,-575434969959299569,1360546975.061225,16940,-1688,-416,nan,0.000000
2,5,3,15,6766612,149544501,-575434969959296948,1360546975.061225,15248,-280,-716,nan,0.000000
2,5,3,15,6766612,149544501,-575434969959294327,1360546975.061225,14420,-4496,-1044,nan,0.000000
2,5,3,15,6766612,149544501,-575434969959291706,1360546975.061225,14924,-3620,-2300,nan,0.000000
2,5,3,15,6766612,149544501,-575434969959289085,1360546975.061225,14840,-3672,-2536,nan,0.000000
2,5,4,15,6766612,149544533,-575434969959286464,1360546975.062500,15132,-3676,-2336,nan,0.000000
2,5,4,15,6766612,149544533,-575434969959283843,1360546975.062500,15932,-5248,-3040,nan,0.000000
2,5,4,15,6766612,149544533,-575434969959281222,1360546975.062500,16020,-5580,-3932,nan,0.000000
2,5,4,15,6766612,149544533,-575434969959278601,1360546975.062500,18688,-3644,-1072,nan,0.000000
2,5,4,15,6766612,149544533,-575434969959275980,1360546975.062500,13436,1100,180,nan,0.000000
2,5,5,15,6766612,149544565,-575434969959273359,1360546975.063003,17308,-6032,-1716,nan,0.000000
2,5,5,15,6766612,149544565,-575434969959270738,1360546975.063003,15468,-4540,-716,nan,0.000000
2,5,5,15,6766612,149544565,-575434969959268117,1360546975.063003,14340,-1072,-1288,nan,0.000000
2,5,5,15,6766612,149544565,-575434969959265496,1360546975.063003,14872,-2500,-2184,nan,0.000000
2,5,5,15,6766612,149544565,-575434969959262875,1360546975.063003,14960,-4016,-2112,nan,0.000000
1,5,6,0,6847860,149544597,3818283849888845049,1360546975.064452,15860,-3532,-3816,nan,0.000000
1,5,6,0,6847860,149544597,3818283849888847670,1360546975.064452,20200,-4544,-1904,nan,0.000000
2,5,7,0,6847860,149544629,3818283849888850291,1360546975.064730,14072,-1228,1320,nan,0.000000
2,5,7,0,6847860,149544629,3818283849888852912,1360546975.064730,14176,-4236,3236,nan,0.000000
2,5,7,0,6847860,149544629,3818283849888855533,1360546975.064730,17292,-1640,520,nan,0.000000
2,5,7,0,6847860,149544629,3818283849888858154,1360546975.064730,14472,-3512,32,nan,0.000000
2,5,7,0,6847860,149544629,3818283849888860775,1360546975.064730,14528,-3872,-192,nan,0.000000
2,5,8,0,6847860,149544661,3818283849888863396,1360546975.066457,16344,-2936,4,nan,0.000000
2,5,8,0,6847860,149544661,3818283849888866017,1360546975.066457,15176,-3804,-852,nan,0.000000
2,5,8,0,6847860,149544661,3818283849888868638,1360546975.066457,14752,-4804,-988,nan,0.000000
2,5,8,0,6847860,149544661,3818283849888871259,1360546975.066457,16504,-5076,-1000,nan,0.000000
2,5,8,0,6847860,149544661,3818283849888873880,1360546975.066457,19120,-4708,-120,nan,0.000000
2,5,9,0,6847860,149544693,3818283849888876501,1360546975.067120,12792,-1064,1380,nan,0.000000
2,5,9,0,6847860,149544693,3818283849888879122,1360546975.067120,17252,-2980,-1336,nan,0.000000
2,5,9,0,6847860,149544693,3818283849888881743,1360546975.067120,16748,-5104,-1300,nan,0.000000
2,5,9,0,6847860,149544693,3818283849888884364,1360546975.067120,14476,-2356,252,nan,0.000000
2,5,9,0,6847860,149544693,3818283849888886985,1360546975.067120,16032,-2192,-708,nan,0.000000
2,5,10,0,6847860,149544725,3818283849888889606,1360546975.068438,15592,-3048,-1344,nan,0.000000
2,5,10,0,6847860,149544725,3818283849888892227,1360546975.068438,15648,-1920,-404,nan,0.000000
2,5,10,0,6847860,149544725,3818283849888894848,1360546975.068438,15796,-2108,-1480,nan,0.000000
2,5,10,0,6847860,149544725,3818283849888897469,1360546975.068438,16844,-2780,-524,nan,0.000000
2,5,10,0,6847860,149544725,3818283849888900090,1360546975.068438,16028,-2604,2036,nan,0.000000
2,5,11,0,6847860,149544757,3818283849888902711,1360546975.068899,14144,-3992,1892,nan,0.000000
2,5,11,0,6847860,149544757,3818283849888905332,1360546975.068899,15764,-4348,1080,nan,0.000000
2,5,11,0,6847860,149544757,3818283849888907953,1360546975.068899,16288,-3436,768,nan,0.000000
2,5,11,0,6847860,149544757,3818283849888910574,1360546975.068899,15448,-3740,1544,nan,0.000000
2,5,11,0,6847860,149544757,3818283849888913195,1360546975.068899,15844,-3452,560,nan,0.000000
1,5,13,0,6929109,149869159,3171142086602539009,1360546984.968279,14288,-2412,780,nan,0.000000
1,5,13,0,6929109,149869159,3171142086602541630,1360546984.968279,16516,168,-2588,nan,0.000000
2,5,14,0,6929109,149869191,3171142086602544251,1360546984.970193,17252,-4496,-496,nan,0.000000
2,5,14,0,6929109,149869191,3171142086602546872,1360546984.970193,14676,-96,-1308,nan,0.000000
2,5,14,0,6929109,149869191,3171142086602549493,1360546984.970193,15432,-2080,-1240,nan,0.000000
2,5,14,0,6929109,149869191,3171142086602552114,1360546984.970193,15416,-2932,-1896,nan,0.000000
2,5,14,0,6929109,149869191,3171142086602554735,1360546984.970193,15276,-2072,-2012,nan,0.000000
2,5,15,0,6929109,149869223,3171142086602557356,1360546984.970820,15752,-2492,-2148,nan,0.000000
2,5,15,0,6929109,149869223,3171142086602559977,1360546984.970820,16940,-2148,-3744,nan,0.000000
2,5,15,0,6929109,149869223,3171142086602562598,1360546984.970820,17480,-3056,-3636,nan,0.000000
2,5,15,0,6929109,149869223,3171142086602565219,1360546984.970820,17732,-692,388,nan,0.000000
2,5,15,0,6929109,149869223,3171142086602567840,1360546984.970820,13216,-2016,1664,nan,0.000000
2,5,0,0,6929109,149869255,3171142086602570461,1360546984.972318,17440,-1176,-128,nan,0.000000
2,5,0,0,6929109,149869255,3171142086602573082,1360546984.972318,15024,-1704,-1100,nan,0.000000
2,5,0,0,6929109,149869255,3171142086602575703,1360546984.972318,14208,-4468,-800,nan,0.000000
2,5,0,0,6929109,149869255,3171142086602578324,1360546984.972318,15336,-3624,-1940,nan,0.000000
2,5,0,0,6929109,149869255,3171142086602580945,1360546984.972318,14892,-3472,-1992,nan,0.000000
2,5,1,0,6929109,149869287,3171142086602583566,1360546984.972708,15540,-3240,-1464,nan,0.000000
2,5,1,0,6929109,149869287,3171142086602586187,1360546984.972708,16412,-5320,-2184,nan,0.000000
2,5,1,0,6929109,149869287,3171142086602588808,1360546984.972708,16792,-5724,-2664,nan,0.000000
2,5,1,0,6929109,149869287,3171142086602591429,1360546984.972708,17196,-1812,552,nan,0.000000
2,5,1,0,6929109,149869287,3171142086602594050,1360546984.972708,15728,308,-892,nan,0.000000
2,5,2,0,6929109,149869319,3171142086602596671,1360546984.974211,16280,-5068,-1128,nan,0.000000
2,5,2,0,6929109,149869319,3171142086602599292,1360546984.974211,15100,-2560,-728,nan,0.000000
2,5,2,0,6929109,149869319,3171142086602601913,1360546984.974211,15068,-1344,-1040,nan,0.000000
2,5,2,0,6929109,149869319,3171142086602604534,1360546984.974211,15316,-2740,-2216,nan,0.000000
2,5,2,0,6929109,149869319,3171142086602607155,1360546984.974211,14720,-2944,-1628,nan,0.000000
2,5,3,0,6929109,149869351,3171142086602609776,1360546984.974826,15256,-2660,-2608,nan,0.000000
2,5,3,0,6929109,149869351,3171142086602612397,1360546984.974826,15480,-3840,-3276,nan,0.000000
2,5,3,0,6929109,149869351,3171142086602615018,1360546984.974826,19088,-4328,-2424,nan,0.000000
2,5,3,0,6929109,149869351,3171142086602617639,1360546984.974826,17540,200,-420,nan,0.000000
2,5,3,0,6929109,149869351,3171142086602620260,1360546984.974826,13248,-1560,2132,nan,0.000000
1,5,4,0,7010357,149869383,3815394346417311989,1360546984.976213,15576,-2128,-408,nan,0.000000
1,5,4,15,7010357,149869383,3815394346417314610,1360546984.976213,14396,-3048,-336,nan,0.000000
2,5,5,15,7010357,149869415,3815394346417317231,1360546984.976646,15696,-3268,-1208,nan,0.000000
2,5,5,15,7010357,149869415,3815394346417319852,1360546984.976646,15144,-3840,-2228,nan,0.000000
2,5,5,15,7010357,149869415,3815394346417322473,1360546984.976646,14876,-3904,-2044,nan,0.000000
2,5,5,15,7010357,149869415,3815394346417325094,1360546984.976646,14944,-3668,-2340,nan,0.000000
2,5,5,15,7010357,149869415,3815394346417327715,1360546984.976646,16624,-2608,-3064,nan,0.000000
2,5,6,15,7010357,149869447,3815394346417330336,1360546984.978202,18080,-3416,-2092,nan,0.000000
2,5,6,15,7010357,149869447,3815394346417332957,1360546984.978202,15392,-2288,540,nan,0.000000
2,5,6,15,7010357,149869447,3815394346417335578,1360546984.978202,14108,-2580,292,nan,0.000000
2,5,6,15,7010357,149869447,3815394346417338199,1360546984.978202,18164,-5620,-776,nan,0.000000
2,5,6,15,7010357,149869447,3815394346417340820,1360546984.978202,15600,-2496,-164,nan,0.000000
2,5,7,15,7010357,149869479,3815394346417343441,1360546984.978619,15004,-3168,-676,nan,0.000000
2,5,7,15,7010357,149869479,3815394346417346062,1360546984.978619,15520,-1696,-1320,nan,0.000000
2,5,7,15,7010357,149869479,3815394346417348683,1360546984.978619,15296,-1948,4,nan,0.000000
2,5,7,15,7010357,149869479,3815394346417351304,1360546984.978619,17092,84,-680,nan,0.000000
2,5,7,15,7010357,149869479,3815394346417353925,1360546984.978619,15380,-968,304,nan,0.000000
2,5,8,15,7010357,149869511,3815394346417356546,1360546984.980201,15704,-5196,2896,nan,0.000000
2,5,8,15,7010357,149869511,3815394346417359167,1360546984.980201,15880,-3640,1788,nan,0.000000
2,5,8,15,7010357,149869511,3815394346417361788,1360546984.980201,15904,-2724,1168,nan,0.000000
2,5,8,15,7010357,149869511,3815394346417364409,1360546984.980201,15832,-3596,1900,nan,0.000000
2,5,8,15,7010357,149869511,3815394346417367030,1360546984.980201,16000,-2936,1376,nan,0.000000
2,5,9,15,7010357,149869543,3815394346417369651,1360546984.982330,16048,-2744,1468,nan,0.000000
2,5,9,15,7010357,149869543,3815394346417372272,1360546984.982330,15236,-3764,1460,nan,0.000000
2,5,9,15,7010357,149869543,3815394346417374893,1360546984.982330,15208,-4544,1888,nan,0.000000
2,5,9,15,7010357,149869543,3815394346417377514,1360546984.982330,14952,-5452,2000,nan,0.000000
2,5,9,15,7010357,149869543,3815394346417380135,1360546984.982330,14736,-4880,2948,nan,0.000000
2,5,10,15,7010357,149869575,3815394346417382756,1360546984.982740,17428,280,-196,nan,0.000000
2,5,10,15,7010357,149869575,3815394346417385377,1360546984.982740,16300,-2548,540,nan,0.000000
2,5,10,15,7010357,149869575,3815394346417387998,1360546984.982740,17724,-2948,-968,nan,0.000000
2,5,10,15,7010357,149869575,3815394346417390619,1360546984.982740,15992,-796,372,nan,0.000000
2,5,10,15,7010357,149869575,3815394346417393240,1360546984.982740,14368,-804,-856,nan,0.000000
1,5,11,0,7091605,149869606,2018189836606717183,1360546984.983115,15736,-2820,-264,nan,0.000000
1,5,11,0,7091605,149869606,2018189836606719804,1360546984.983115,15308,-2576,-308,nan,0.000000
2,5,12,0,7091605,149869638,2018189836606722425,1360546984.984190,15492,-2668,-964,nan,0.000000
2,5,12,0,7091605,149869638,2018189836606725046,1360546984.984190,16044,-3380,-1280,nan,0.000000
2,5,12,0,7091605,149869638,2018189836606727667,1360546984.984190,16428,-3016,-2184,nan,0.000000
2,5,12,0,7091605,149869638,2018189836606730288,1360546984.984190,20468,-3072,432,nan,0.000000
2,5,12,0,7091605,149869638,2018189836606732909,1360546984.984190,14236,236,1876,nan,0.000000
2,5,13,0,7091605,149869671,2018189836606735530,1360546984.984780,15248,-2168,4584,nan,0.000000
2,5,13,0,7091605,149869671,2018189836606738151,1360546984.984780,16068,-204,772,nan,0.000000
2,5,13,0,7091605,149869671,2018189836606740772,1360546984.984780,15020,-3080,548,nan,0.000000
2,5,13,0,7091605,149869671,2018189836606743393,1360546984.984780,14512,-3416,140,nan,0.000000
2,5,13,0,7091605,149869671,2018189836606746014,1360546984.984780,15476,-2980,-424,nan,0.000000
2,5,14,0,7091605,149869702,2018189836606748635,1360546984.986174,15384,-3688,-748,nan,0.000000
2,5,14,0,7091605,149869702,2018189836606751256,1360546984.986174,15732,-4620,-728,nan,0.000000
2,5,14,0,7091605,149869702,2018189836606753877,1360546984.986174,16156,-5844,-1804,nan,0.000000
2,5,14,0,7091605,149869702,2018189836606756498,1360546984.986174,21120,-1588,-152,nan,0.000000
2,5,14,0,7091605,149869702,2018189836606759119,1360546984.986174,12448,1636,1192,nan,0.000000
2,5,15,0,7091605,149869735,2018189836606761740,1360546984.986875,17688,-3556,-1064,nan,0.000000
2,5,15,0,7091605,149869735,2018189836606764361,1360546984.986875,15508,-3188,-1292,nan,0.000000
2,5,15,0,7091605,149869735,2018189836606766982,1360546984.986875,14448,-424,-384,nan,0.000000
2,5,15,0,7091605,149869735,2018189836606769603,1360546984.986875,15756,-1600,-1828,nan,0.000000
2,5,15,0,7091605,149869735,2018189836606772224,1360546984.986875,15116,-2976,-1908,nan,0.000000
2,5,0,0,7091605,149869766,2018189836606774845,1360546984.988178,15264,-2992,-2068,nan,0.000000
2,5,0,0,7091605,149869766,2018189836606777466,1360546984.988178,15808,-2640,-2800,nan,0.000000
2,5,0,0,7091605,149869766,2018189836606780087,1360546984.988178,18472,-4028,-3100,nan,0.000000
2,5,0,0,7091605,149869766,2018189836606782708,1360546984.988178,18952,32,1272,nan,0.000000
2,5,0,0,7091605,149869766,2018189836606785329,1360546984.988178,12672,-1712,2132,nan,0.000000
2,5,1,0,7091605,149869799,2018189836606787950,1360546984.988986,17536,-848,-136,nan,0.000000
2,5,1,0,7091605,149869799,2018189836606790571,1360546984.988986,15540,-1876,-556,nan,0.000000
2,5,1,0,7091605,149869799,2018189836606793192,1360546984.988986,14092,-3912,-784,nan,0.000000
2,5,1,0,7091605,149869799,2018189836606795813,1360546984.988986,15688,-3884,-1276,nan,0.000000
2,5,1,0,7091605,149869799,2018189836606798434,1360546984.988986,15004,-3776,-2080,nan,0.000000
1,5,2,0,7172853,149869830,-3099130784385304321,1360546984.990267,15344,-4352,-2224,nan,0.000000
1,5,2,0,7172853,149869830,-3099130784385301700,1360546984.990267,18556,-5092,-1516,nan,0.000000
2,5,3,0,7172853,149869863,-3099130784385299079,1360546984.990738,15176,-3804,-968,nan,0.000000
2,5,3,0,7172853,149869863,-3099130784385296458,1360546984.990738,13272,-1660,1328,nan,0.000000
2,5,3,0,7172853,149869863,-3099130784385293837,1360546984.990738,17560,-4628,-1940,nan,0.000000
2,5,3,0,7172853,149869863,-3099130784385291216,1360546984.990738,16532,-5500,-1312,nan,0.000000
2,5,3,0,7172853,149869863,-3099130784385288595,1360546984.990738,14232,-2672,-392,nan,0.000000
2,5,4,0,7172853,149869894,-3099130784385285974,1360546984.995512,15680,-2856,-1512,nan,0.000000
2,5,4,0,7172853,149869894,-3099130784385283353,1360546984.995512,15724,-3828,-2084,nan,0.000000
2,5,4,0,7172853,149869894,-3099130784385280732,1360546984.995512,15268,-3044,-1452,nan,0.000000
2,5,4,0,7172853,149869894,-3099130784385278111,1360546984.995512,15256,-2736,-2008,nan,0.000000
2,5,4,0,7172853,149869894,-3099130784385275490,1360546984.995512,15616,-3040,-1800,nan,0.000000
2,5,5,0,7172853,149869927,-3099130784385272869,1360546984.997570,16536,-4036,-1384,nan,0.000000
2,5,5,0,7172853,149869927,-3099130784385270248,1360546984.997570,16020,-2332,148,nan,0.000000
2,5,5,0,7172853,149869927,-3099130784385267627,1360546984.997570,14540,-3012,764,nan,0.000000
2,5,5,0,7172853,149869927,-3099130784385265006,1360546984.997570,16276,-5364,-228,nan,0.000000
2,5,5,0,7172853,149869927,-3099130784385262385,1360546984.997570,15920,-2732,-944,nan,0.000000
2,5,6,0,7172853,149869958,-3099130784385259764,1360546985.005702,15484,-4024,-452,nan,0.000000
2,5,6,0,7172853,149869958,-3099130784385257143,1360546985.005702,16160,-2224,-160,nan,0.000000
2,5,6,0,7172853,149869958,-3099130784385254522,1360546985.005702,15804,-2720,-352,nan,0.000000
2,5,6,0,7172853,149869958,-3099130784385251901,1360546985.005702,15624,-3840,-132,nan,0.000000
2,5,6,0,7172853,149869958,-3099130784385249280,1360546985.005702,15540,-3748,-36,nan,0.000000
2,5,7,0,7172853,149869990,-3099130784385246659,1360546985.010975,15156,-4432,168,nan,0.000000
2,5,7,0,7172853,149869990,-3099130784385244038,1360546985.010975,15564,-4320,488,nan,0.000000
2,5,7,0,7172853,149869990,-3099130784385241417,1360546985.010975,15348,-4072,476,nan,0.000000
2,5,7,0,7172853,149869990,-3099130784385238796,1360546985.010975,17268,-1692,504,nan,0.000000
2,5,7,0,7172853,149869990,-3099130784385236175,1360546985.010975,16364,-4672,-28,nan,0.000000
2,5,8,0,7172853,149870022,-3099130784385233554,1360546987.448533,15512,-860,-1344,nan,0.000000
2,5,8,0,7172853,149870022,-3099130784385230933,1360546987.448533,17520,-3352,-1032,nan,0.000000
2,5,8,0,7172853,149870022,-3099130784385228312,1360546987.448533,14528,-376,-1096,nan,0.000000
2,5,8,0,7172853,149870022,-3099130784385225691,1360546987.448533,15420,-1912,-1312,nan,0.000000
2,5,8,0,7172853,149870022,-3099130784385223070,1360546987.448533,15520,-2500,-1684,nan,0.000000
1,5,9,0,7254098,149950443,-505554405185765126,1360546987.450214,15388,-2588,-1916,nan,0.000000
1,5,9,0,7254098,149950443,-505554405185762505,1360546987.450214,16336,-3224,-2324,nan,0.000000
2,5,10,0,7254098,149950475,-505554405185759884,1360546987.450781,16744,-2292,-3900,nan,0.000000
2,5,10,0,7254098,149950475,-505554405185757263,1360546987.450781,19880,-3400,-1792,nan,0.000000
2,5,10,0,7254098,149950475,-505554405185754642,1360546987.450781,14016,236,1056,nan,0.000000
2,5,10,0,7254098,149950475,-505554405185752021,1360546987.450781,15452,-2072,2608,nan,0.000000
2,5,10,0,7254098,149950475,-505554405185749400,1360546987.450781,16060,-404,-720,nan,0.000000
2,5,11,0,7254098,149950507,-505554405185746779,1360546987.452220,15264,-2496,-760,nan,0.000000
2,5,11,0,7254098,149950507,-505554405185744158,1360546987.452220,14552,-3888,-692,nan,0.000000
2,5,11,0,7254098,149950507,-505554405185741537,1360546987.452220,15068,-3584,-1916,nan,0.000000
2,5,11,0,7254098,149950507,-505554405185738916,1360546987.452220,15104,-3608,-1924,nan,0.000000
2,5,11,0,7254098,149950507,-505554405185736295,1360546987.452220,15600,-4056,-1832,nan,0.000000
2,5,12,0,7254098,149950539,-505554405185733674,1360546987.452980,16112,-5984,-2920,nan,0.000000
2,5,12,0,7254098,149950539,-505554405185731053,1360546987.452980,20176,-4024,-876,nan,0.000000
2,5,12,0,7254098,149950539,-505554405185728432,1360546987.452980,13344,648,884,nan,0.000000
2,5,12,0,7254098,149950539,-505554405185725811,1360546987.452980,16680,-2088,-1124,nan,0.000000
2,5,12,0,7254098,149950539,-505554405185723190,1360546987.452980,16140,-5428,-384,nan,0.000000
2,5,13,0,7254098,149950571,-505554405185720569,1360546987.454138,14732,-1348,-1144,nan,0.000000
2,5,13,0,7254098,149950571,-505554405185717948,1360546987.454138,14812,-2044,-1332,nan,0.000000
2,5,13,0,7254098,149950571,-505554405185715327,1360546987.454138,15280,-3300,-2216,nan,0.000000
2,5,13,0,7254098,149950571,-505554405185712706,1360546987.454138,15092,-3268,-2288,nan,0.000000
2,5,13,0,7254098,149950571,-505554405185710085,1360546987.454138,15400,-2728,-2900,nan,0.000000
2,5,14,0,7254098,149950603,-505554405185707464,1360546987.455140,15648,-3928,-4360,nan,0.000000
2,5,14,0,7254098,149950603,-505554405185704843,1360546987.455140,21840,-3060,-1160,nan,0.000000
2,5,14,0,7254098,149950603,-505554405185702222,1360546987.455140,11800,-516,-396,nan,0.000000
2,5,14,0,7254098,149950603,-505554405185699601,1360546987.455140,17680,-1836,752,nan,0.000000
2,5,14,0,7254098,149950603,-505554405185696980,1360546987.455140,15848,84,-1692,nan,0.000000
2,5,15,0,7254098,149950635,-505554405185694359,1360546989.926376,14472,-3396,-1136,nan,0.000000
2,5,15,0,7254098,149950635,-505554405185691738,1360546989.926376,15128,-3528,-1776,nan,0.000000
2,5,15,0,7254098,149950635,-505554405185689117,1360546989.926376,15080,-3728,-2596,nan,0.000000
2,5,15,0,7254098,149950635,-505554405185686496,1360546989.926376,15000,-3132,-2856,nan,0.000000
2,5,15,0,7254098,149950635,-505554405185683875,1360546989.926376,14916,-4252,-2372,nan,0.000000
1,5,0,0,7335342,150031658,1223071386247598331,1360546989.928159,18156,-4124,-2184,nan,0.000000
1,5,0,0,7335342,150031658,1223071386247600952,1360546989.928159,14776,-2828,-892,nan,0.000000
2,5,1,0,7335342,150031690,1223071386247603573,1360546989.928563,14204,-1532,232,nan,0.000000
2,5,1,0,7335342,150031690,1223071386247606194,1360546989.928563,17812,-5268,-1944,nan,0.000000
2,5,1,0,7335342,150031690,1223071386247608815,1360546989.928563,15760,-4556,-1028,nan,0.000000
2,5,1,0,7335342,150031690,1223071386247611436,1360546989.928563,14656,-3372,-684,nan,0.000000
2,5,1,0,7335342,150031690,1223071386247614057,1360546989.928563,16064,-2276,-228,nan,0.000000
2,5,2,0,7335342,150031722,1223071386247616678,1360546989.930104,15644,-1492,-856,nan,0.000000
2,5,2,0,7335342,150031722,1223071386247619299,1360546989.930104,15232,-1652,-316,nan,0.000000
2,5,2,0,7335342,150031722,1223071386247621920,1360546989.930104,17436,-1616,136,nan,0.000000
2,5,2,0,7335342,150031722,1223071386247624541,1360546989.930104,14976,-2436,952,nan,0.000000
2,5,2,0,7335342,150031722,1223071386247627162,1360546989.930104,15328,-6040,3108,nan,0.000000
2,5,3,0,7335342,150031754,1223071386247629783,1360546989.931172,16548,-2964,280,nan,0.000000
2,5,3,0,7335342,150031754,1223071386247632404,1360546989.931172,14936,-4012,860,nan,0.000000
2,5,3,0,7335342,150031754,1223071386247635025,1360546989.931172,16064,-3240,1472,nan,0.000000
2,5,3,0,7335342,150031754,1223071386247637646,1360546989.931172,15668,-3564,876,nan,0.000000
2,5,3,0,7335342,150031754,1223071386247640267,1360546989.931172,15668,-3660,916,nan,0.000000
2,5,4,0,7335342,150031786,1223071386247642888,1360546989.932883,15648,-3536,1144,nan,0.000000
2,5,4,0,7335342,150031786,1223071386247645509,1360546989.932883,15344,-4332,1028,nan,0.000000
2,5,4,0,7335342,150031786,1223071386247648130,1360546989.932883,15036,-4852,804,nan,0.000000
2,5,4,0,7335342,150031786,1223071386247650751,1360546989.932883,15040,-6008,1272,nan,0.000000
2,5,4,0,7335342,150031786,1223071386247653372,1360546989.932883,14728,-6072,1292,nan,0.000000
2,5,5,0,7335342,150031818,1223071386247655993,1360546989.941842,17888,-4784,1088,nan,0.000000
2,5,5,0,7335342,150031818,1223071386247658614,1360546989.941842,14168,-4740,960,nan,0.000000
2,5,5,0,7335342,150031818,1223071386247661235,1360546989.941842,15512,-804,440,nan,0.000000
2,5,5,0,7335342,150031818,1223071386247663856,1360546989.941842,17684,-2664,-1492,nan,0.000000
2,5,5,0,7335342,150031818,1223071386247666477,1360546989.941842,15640,-1664,-612,nan,0.000000
1,5,7,0,7416588,150194155,2376595453358457085,1360546994.888280,21052,-2652,792,nan,0.000000
1,5,7,0,7416588,150194155,2376595453358459706,1360546994.888280,11560,-164,1748,nan,0.000000
2,5,8,0,7416588,150194187,2376595453358462327,1360546994.889137,17064,-2672,2432,nan,0.000000
2,5,8,0,7416588,150194187,2376595453358464948,1360546994.889137,16192,-772,304,nan,0.000000
2,5,8,0,7416588,150194187,2376595453358467569,1360546994.889137,13936,-2996,-508,nan,0.000000
2,5,8,0,7416588,150194187,2376595453358470190,1360546994.889137,15704,-4040,-608,nan,0.000000
2,5,8,0,7416588,150194187,2376595453358472811,1360546994.889137,15432,-3280,-1284,nan,0.000000
2,5,9,0,7416588,150194219,2376595453358475432,1360546994.890247,14768,-4012,-1244,nan,0.000000
2,5,9,0,7416588,150194219,2376595453358478053,1360546994.890247,15268,-4744,-1216,nan,0.000000
2,5,9,0,7416588,150194219,2376595453358480674,1360546994.890247,15744,-5600,-1324,nan,0.000000
2,5,9,0,7416588,150194219,2376595453358483295,1360546994.890247,16992,-6156,-1596,nan,0.000000
2,5,9,0,7416588,150194219,2376595453358485916,1360546994.890247,18344,-3504,400,nan,0.000000
2,5,10,0,7416588,150194251,2376595453358488537,1360546994.890917,13456,1840,692,nan,0.000000
2,5,10,0,7416588,150194251,2376595453358491158,1360546994.890917,17580,-5392,-556,nan,0.000000
2,5,10,0,7416588,150194251,2376595453358493779,1360546994.890917,15652,-3096,-72,nan,0.000000
2,5,10,0,7416588,150194251,2376595453358496400,1360546994.890917,14608,-1500,-424,nan,0.000000
2,5,10,0,7416588,150194251,2376595453358499021,1360546994.890917,15292,-2776,-1324,nan,0.000000
2,5,11,0,7416588,150194283,2376595453358501642,1360546994.891971,14836,-3860,-1320,nan,0.000000
2,5,11,0,7416588,150194283,2376595453358504263,1360546994.891971,15628,-3408,-2336,nan,0.000000
2,5,11,0,7416588,150194283,2376595453358506884,1360546994.891971,16408,-2812,-2932,nan,0.000000
2,5,11,0,7416588,150194283,2376595453358509505,1360546994.891971,15576,-3008,-3928,nan,0.000000
2,5,11,0,7416588,150194283,2376595453358512126,1360546994.891971,19592,-3036,756,nan,0.000000
2,5,12,0,7416588,150194315,2376595453358514747,1360546994.892795,13616,-1956,1532,nan,0.000000
2,5,12,0,7416588,150194315,2376595453358517368,1360546994.892795,16440,-4348,2436,nan,0.000000
2,5,12,0,7416588,150194315,2376595453358519989,1360546994.892795,15628,-760,44,nan,0.000000
2,5,12,0,7416588,150194315,2376595453358522610,1360546994.892795,14888,-3884,-168,nan,0.000000
2,5,12,0,7416588,150194315,2376595453358525231,1360546994.892795,15364,-3544,-616,nan,0.000000
2,5,13,0,7416588,150194347,2376595453358527852,1360546994.894063,15164,-3524,-1088,nan,0.000000
2,5,13,0,7416588,150194347,2376595453358530473,1360546994.894063,15000,-4200,-1384,nan,0.000000
2,5,13,0,7416588,150194347,2376595453358533094,1360546994.894063,14888,-4800,-1260,nan,0.000000
2,5,13,0,7416588,150194347,2376595453358535715,1360546994.894063,15596,-4080,-1688,nan,0.000000
2,5,13,0,7416588,150194347,2376595453358538336,1360546994.894063,17800,-4696,-2196,nan,0.000000
1,5,14,0,7497834,150194379,-7423452880948248325,1360546994.894818,13600,-2516,704,nan,0.000000
1,5,14,15,7497834,150194379,-7423452880948245704,1360546994.894818,16528,-3648,-316,nan,0.000000
2,5,15,15,7497834,150194411,-7423452880948243083,1360546994.895405,16660,-5192,92,nan,0.000000
2,5,15,15,7497834,150194411,-7423452880948240462,1360546994.895405,15060,-3528,820,nan,0.000000
2,5,15,15,7497834,150194411,-7423452880948237841,1360546994.895405,16184,-3276,132,nan,0.000000
2,5,15,15,7497834,150194411,-7423452880948235220,1360546994.895405,15376,-3972,-124,nan,0.000000
2,5,15,15,7497834,150194411,-7423452880948232599,1360546994.895405,15640,-3612,-56,nan,0.000000
2,5,0,15,7497834,150194443,-7423452880948229978,1360546994.896156,15588,-2696,-808,nan,0.000000
2,5,0,15,7497834,150194443,-7423452880948227357,1360546994.896156,14732,-3688,-928,nan,0.000000
2,5,0,15,7497834,150194443,-7423452880948224736,1360546994.896156,15236,-3752,-772,nan,0.000000
2,5,0,15,7497834,150194443,-7423452880948222115,1360546994.896156,18252,-3836,824,nan,0.000000
2,5,0,15,7497834,150194443,-7423452880948219494,1360546994.896156,13996,-3608,1088,nan,0.000000
2,5,1,15,7497834,150194475,-7423452880948216873,1360546994.896822,13408,-4952,1536,nan,0.000000
2,5,1,15,7497834,150194475,-7423452880948214252,1360546994.896822,17864,-2844,1196,nan,0.000000
2,5,1,15,7497834,150194475,-7423452880948211631,1360546994.896822,15404,-3180,312,nan,0.000000
2,5,1,15,7497834,150194475,-7423452880948209010,1360546994.896822,15476,-3816,572,nan,0.000000
2,5,1,15,7497834,150194475,-7423452880948206389,1360546994.896822,15384,-4428,384,nan,0.000000
2,5,2,15,7497834,150194507,-7423452880948203768,1360546994.897937,15752,-3672,272,nan,0.000000
2,5,2,15,7497834,150194507,-7423452880948201147,1360546994.897937,15312,-4680,176,nan,0.000000
2,5,2,15,7497834,150194507,-7423452880948198526,1360546994.897937,15336,-4688,72,nan,0.000000
2,5,2,15,7497834,150194507,-7423452880948195905,1360546994.897937,15160,-4884,-24,nan,0.000000
2,5,2,15,7497834,150194507,-7423452880948193284,1360546994.897937,16512,-4648,184,nan,0.000000
2,5,3,15,7497834,150194539,-7423452880948190663,1360546994.898442,18424,-3876,-96,nan,0.000000
2,5,3,15,7497834,150194539,-7423452880948188042,1360546994.898442,13628,-2612,412,nan,0.000000
2,5,3,15,7497834,150194539,-7423452880948185421,1360546994.898442,15524,668,-428,nan,0.000000
2,5,3,15,7497834,150194539,-7423452880948182800,1360546994.898442,18096,-5260,-1124,nan,0.000000
2,5,3,15,7497834,150194539,-7423452880948180179,1360546994.898442,15000,-1712,-1148,nan,0.000000
1,5,5,0,7579081,150356662,-9153107793253980934,1360546999.846291,17632,-4068,-3412,nan,0.000000
1,5,5,1,7579081,150356662,-9153107793253978313,1360546999.846291,17316,-1108,-808,nan,0.000000
2,5,6,1,7579081,150356693,-9153107793253975692,1360546999.847915,13112,-2812,2016,nan,0.000000
2,5,6,1,7579081,150356693,-9153107793253973071,1360546999.847915,17332,-1132,96,nan,0.000000
2,5,6,1,7579081,150356693,-9153107793253970450,1360546999.847915,16184,-472,-936,nan,0.000000
2,5,6,1,7579081,150356693,-9153107793253967829,1360546999.847915,13836,-3720,-580,nan,0.000000
2,5,6,1,7579081,150356693,-9153107793253965208,1360546999.847915,15276,-3552,-1292,nan,0.000000
2,5,7,1,7579081,150356726,-9153107793253962587,1360546999.848597,15204,-3480,-1868,nan,0.000000
2,5,7,1,7579081,150356726,-9153107793253959966,1360546999.848597,15744,-3272,-1728,nan,0.000000
2,5,7,1,7579081,150356726,-9153107793253957345,1360546999.848597,15924,-5228,-2116,nan,0.000000
2,5,7,1,7579081,150356726,-9153107793253954724,1360546999.848597,18812,-5272,-1484,nan,0.000000
2,5,7,1,7579081,150356726,-9153107793253952103,1360546999.848597,15476,-1080,108,nan,0.000000
2,5,8,1,7579081,150356757,-9153107793253949482,1360546999.850006,15280,1420,-424,nan,0.000000
2,5,8,1,7579081,150356757,-9153107793253946861,1360546999.850006,17248,-5740,-560,nan,0.000000
2,5,8,1,7579081,150356757,-9153107793253944240,1360546999.850006,14820,-1784,-996,nan,0.000000
2,5,8,1,7579081,150356757,-9153107793253941619,1360546999.850006,14720,-1796,-948,nan,0.000000
2,5,8,1,7579081,150356757,-9153107793253938998,1360546999.850006,15628,-3064,-1976,nan,0.000000
2,5,9,1,7579081,150356790,-9153107793253936377,1360546999.850774,15048,-3728,-2016,nan,0.000000
2,5,9,1,7579081,150356790,-9153107793253933756,1360546999.850774,15636,-2532,-2504,nan,0.000000
2,5,9,1,7579081,150356790,-9153107793253931135,1360546999.850774,16280,-3272,-4000,nan,0.000000
2,5,9,1,7579081,150356790,-9153107793253928514,1360546999.850774,20620,-3620,-2148,nan,0.000000
2,5,9,1,7579081,150356790,-9153107793253925893,1360546999.850774,13616,-1408,484,nan,0.000000
2,5,10,1,7579081,150356821,-9153107793253923272,1360546999.851888,13896,-3432,2608,nan,0.000000
2,5,10,1,7579081,150356821,-9153107793253920651,1360546999.851888,17912,-1012,116,nan,0.000000
2,5,10,1,7579081,150356821,-9153107793253918030,1360546999.851888,15048,-2832,-420,nan,0.000000
2,5,10,1,7579081,150356821,-9153107793253915409,1360546999.851888,14600,-3808,-812,nan,0.000000
2,5,10,1,7579081,150356821,-9153107793253912788,1360546999.851888,16076,-2880,-1308,nan,0.000000
2,5,11,1,7579081,150356854,-9153107793253910167,1360546999.852919,15520,-3076,-1856,nan,0.000000
2,5,11,1,7579081,150356854,-9153107793253907546,1360546999.852919,15060,-3896,-1716,nan,0.000000
2,5,11,1,7579081,150356854,-9153107793253904925,1360546999.852919,15500,-4424,-1476,nan,0.000000
2,5,11,1,7579081,150356854,-9153107793253902304,1360546999.852919,15532,-4632,-2400,nan,0.000000
2,5,11,1,7579081,150356854,-9153107793253899683,1360546999.852919,17032,-5340,-1460,nan,0.000000
1,5,12,0,7660328,150356885,5546685352761803000,1360546999.854219,13332,-408,912,nan,0.000000
1,5,12,15,7660328,150356885,5546685352761805621,1360546999.854219,17620,-3136,-1252,nan,0.000000
2,5,13,15,7660328,150356918,5546685352761808242,1360546999.854834,16424,-6012,-796,nan,0.000000
2,5,13,15,7660328,150356918,5546685352761810863,1360546999.854834,14700,-2380,-164,nan,0.000000
2,5,13,15,7660328,150356918,5546685352761813484,1360546999.854834,15940,-2432,-692,nan,0.000000
2,5,13,15,7660328,150356918,5546685352761816105,1360546999.854834,15728,-3752,-1104,nan,0.000000
2,5,13,15,7660328,150356918,5546685352761818726,1360546999.854834,15556,-2892,-704,nan,0.000000
2,5,14,15,7660328,150356949,5546685352761821347,1360546999.855834,15476,-2972,-1052,nan,0.000000
2,5,14,15,7660328,150356949,5546685352761823968,1360546999.855834,15316,-3736,-1300,nan,0.000000
2,5,14,15,7660328,150356949,5546685352761826589,1360546999.855834,18124,-3488,204,nan,0.000000
2,5,14,15,7660328,150356949,5546685352761829210,1360546999.855834,15080,-2568,2244,nan,0.000000
2,5,14,15,7660328,150356949,5546685352761831831,1360546999.855834,12612,-4368,860,nan,0.000000
2,5,15,15,7660328,150356982,5546685352761834452,1360546999.856616,17772,-2508,3348,nan,0.000000
2,5,15,15,7660328,150356982,5546685352761837073,1360546999.856616,16600,-2704,208,nan,0.000000
2,5,15,15,7660328,150356982,5546685352761839694,1360546999.856616,14376,-3780,796,nan,0.000000
2,5,15,15,7660328,150356982,5546685352761842315,1360546999.856616,15728,-3852,1224,nan,0.000000
2,5,15,15,7660328,150356982,5546685352761844936,1360546999.856616,15680,-3764,908,nan,0.000000
2,5,0,15,7660328,150357013,5546685352761847557,1360546999.858073,15704,-3624,884,nan,0.000000
2,5,0,15,7660328,150357013,5546685352761850178,1360546999.858073,15496,-3980,972,nan,0.000000
2,5,0,15,7660328,150357013,5546685352761852799,1360546999.858073,15096,-4424,592,nan,0.000000
2,5,0,15,7660328,150357013,5546685352761855420,1360546999.858073,15288,-4936,688,nan,0.000000
2,5,0,15,7660328,150357013,5546685352761858041,1360546999.858073,15196,-5600,1292,nan,0.000000
2,5,1,15,7660328,150357046,5546685352761860662,1360546999.859059,18588,-4188,1524,nan,0.000000
2,5,1,15,7660328,150357046,5546685352761863283,1360546999.859059,14632,-4376,884,nan,0.000000
2,5,1,15,7660328,150357046,5546685352761865904,1360546999.859059,15384,1324,620,nan,0.000000
2,5,1,15,7660328,150357046,5546685352761868525,1360546999.859059,17952,-3492,-900,nan,0.000000
2,5,1,15,7660328,150357046,5546685352761871146,1360546999.859059,15620,-1340,-552,nan,0.000000
1,5,3,0,7741576,150600415,-2234435264997179139,1360547007.286022,18896,-3208,-1736,nan,0.000000
1,5,3,1,7741576,150600415,-2234435264997176518,1360547007.286022,16276,-408,296,nan,0.000000
2,5,4,1,7741576,150600447,-2234435264997173897,1360547007.287013,13096,-2352,2824,nan,0.000000
2,5,4,1,7741576,150600447,-2234435264997171276,1360547007.287013,17736,-908,508,nan,0.000000
2,5,4,1,7741576,150600447,-2234435264997168655,1360547007.287013,15704,-1552,-548,nan,0.000000
2,5,4,1,7741576,150600447,-2234435264997166034,1360547007.287013,13988,-4012,-876,nan,0.000000
2,5,4,1,7741576,150600447,-2234435264997163413,1360547007.287013,15516,-3592,-1240,nan,0.000000
2,5,5,1,7741576,150600478,-2234435264997160792,1360547007.287969,15308,-3136,-1320,nan,0.000000
2,5,5,1,7741576,150600478,-2234435264997158171,1360547007.287969,15164,-3628,-1460,nan,0.000000
2,5,5,1,7741576,150600478,-2234435264997155550,1360547007.287969,15372,-4576,-1276,nan,0.000000
2,5,5,1,7741576,150600478,-2234435264997152929,1360547007.287969,15812,-5196,-2484,nan,0.000000
2,5,5,1,7741576,150600478,-2234435264997150308,1360547007.287969,20100,-4032,-832,nan,0.000000
2,5,6,1,7741576,150600511,-2234435264997147687,1360547007.288717,14408,-1652,1124,nan,0.000000
2,5,6,1,7741576,150600511,-2234435264997145066,1360547007.288717,15540,732,-560,nan,0.000000
2,5,6,1,7741576,150600511,-2234435264997142445,1360547007.288717,16552,-5336,-268,nan,0.000000
2,5,6,1,7741576,150600511,-2234435264997139824,1360547007.288717,14852,-1904,-676,nan,0.000000
2,5,6,1,7741576,150600511,-2234435264997137203,1360547007.288717,15196,-2424,-1388,nan,0.000000
2,5,7,1,7741576,150600542,-2234435264997134582,1360547007.289637,15100,-2868,-1920,nan,0.000000
2,5,7,1,7741576,150600542,-2234435264997131961,1360547007.289637,14848,-2952,-2364,nan,0.000000
2,5,7,1,7741576,150600542,-2234435264997129340,1360547007.289637,15948,-2532,-2732,nan,0.000000
2,5,7,1,7741576,150600542,-2234435264997126719,1360547007.289637,16500,-2544,-3980,nan,0.000000
2,5,7,1,7741576,150600542,-2234435264997124098,1360547007.289637,22248,-2844,616,nan,0.000000
2,5,8,1,7741576,150600575,-2234435264997121477,1360547007.290370,11652,-1936,1212,nan,0.000000
2,5,8,1,7741576,150600575,-2234435264997118856,1360547007.290370,16464,-2504,2924,nan,0.000000
2,5,8,1,7741576,150600575,-2234435264997116235,1360547007.290370,15992,-736,-92,nan,0.000000
2,5,8,1,7741576,150600575,-2234435264997113614,1360547007.290370,14592,-3868,-128,nan,0.000000
2,5,8,1,7741576,150600575,-2234435264997110993,1360547007.290370,15368,-3892,-520,nan,0.000000
2,5,9,1,7741576,150600606,-2234435264997108372,1360547007.291680,15364,-3320,-1104,nan,0.000000
2,5,9,1,7741576,150600606,-2234435264997105751,1360547007.291680,15388,-3608,-1004,nan,0.000000
2,5,9,1,7741576,150600606,-2234435264997103130,1360547007.291680,14896,-4436,-1092,nan,0.000000
2,5,9,1,7741576,150600606,-2234435264997100509,1360547007.291680,15512,-4492,-1520,nan,0.000000
2,5,9,1,7741576,150600606,-2234435264997097888,1360547007.291680,20300,-5260,-616,nan,0.000000
1,5,10,0,7822823,150600639,1512339697148145915,1360547007.292636,14136,256,1012,nan,0.000000
1,5,10,15,7822823,150600639,1512339697148148536,1360547007.292636,18648,-4840,-668,nan,0.000000
2,5,11,15,7822823,150600670,1512339697148151157,1360547007.293783,14880,-2440,232,nan,0.000000
2,5,11,15,7822823,150600670,1512339697148153778,1360547007.293783,15412,-2220,-148,nan,0.000000
2,5,11,15,7822823,150600670,1512339697148156399,1360547007.293783,16256,-2984,-740,nan,0.000000
2,5,11,15,7822823,150600670,1512339697148159020,1360547007.293783,15344,-3320,-236,nan,0.000000
2,5,11,15,7822823,150600670,1512339697148161641,1360547007.293783,15396,-2112,-336,nan,0.000000
2,5,12,15,7822823,150600703,1512339697148164262,1360547007.294436,15672,-2048,-1204,nan,0.000000
2,5,12,15,7822823,150600703,1512339697148166883,1360547007.294436,17344,-3224,596,nan,0.000000
2,5,12,15,7822823,150600703,1512339697148169504,1360547007.294436,14984,-3468,2100,nan,0.000000
2,5,12,15,7822823,150600703,1512339697148172125,1360547007.294436,13728,-4256,2340,nan,0.000000
2,5,12,15,7822823,150600703,1512339697148174746,1360547007.294436,16868,-2356,1252,nan,0.000000
2,5,13,15,7822823,150600734,1512339697148177367,1360547007.295704,16360,-3052,1028,nan,0.000000
2,5,13,15,7822823,150600734,1512339697148179988,1360547007.295704,15120,-3880,624,nan,0.000000
2,5,13,15,7822823,150600734,1512339697148182609,1360547007.295704,15700,-3092,528,nan,0.000000
2,5,13,15,7822823,150600734,1512339697148185230,1360547007.295704,15680,-3532,396,nan,0.000000
2,5,13,15,7822823,150600734,1512339697148187851,1360547007.295704,15416,-4056,284,nan,0.000000
2,5,14,15,7822823,150600767,1512339697148190472,1360547007.296649,15336,-4292,172,nan,0.000000
2,5,14,15,7822823,150600767,1512339697148193093,1360547007.296649,15716,-4372,460,nan,0.000000
2,5,14,15,7822823,150600767,1512339697148195714,1360547007.296649,15612,-5292,120,nan,0.000000
2,5,14,15,7822823,150600767,1512339697148198335,1360547007.296649,17440,-5436,180,nan,0.000000
2,5,14,15,7822823,150600767,1512339697148200956,1360547007.296649,15664,-4276,568,nan,0.000000
2,5,15,15,7822823,150600798,1512339697148203577,1360547007.297690,14736,-1372,996,nan,0.000000
2,5,15,15,7822823,150600798,1512339697148206198,1360547007.297690,16292,496,-228,nan,0.000000
2,5,15,15,7822823,150600798,1512339697148208819,1360547007.297690,17368,-3504,-548,nan,0.000000
2,5,15,15,7822823,150600798,1512339697148211440,1360547007.297690,14880,-1312,-1076,nan,0.000000
2,5,15,15,7822823,150600798,1512339697148214061,1360547007.297690,15268,-2044,-856,nan,0.000000
2,5,0,15,7822823,150600830,1512339697148216682,1360547007.298077,14976,-2436,-1508,nan,0.000000
2,5,0,15,7822823,150600830,1512339697148219303,1360547007.298077,15240,-2784,-1884,nan,0.000000
2,5,0,15,7822823,150600830,1512339697148221924,1360547007.298077,16312,-3116,-2432,nan,0.000000
