type,ID,seq,packetLoss,nodeTimestamp,bsTimestamp,syncTimestamp,systemTime,accelX,accelY,accelZ,cannula,voltage
1,5,4,0,12045316,135285844,-7142395668391719707,1361358716.326876,15712,-4012,-2040,nan,0.000000
1,5,4,15,12045316,135285844,-7142395668391717086,1361358716.326876,17800,-976,-3100,nan,0.000000
2,5,5,15,12045316,135285876,-7142395668391714465,1361358716.327041,15592,-468,-4232,nan,0.000000
2,5,5,15,12045316,135285876,-7142395668391711844,1361358716.327041,17552,2024,-4424,nan,0.000000
2,5,5,15,12045316,135285876,-7142395668391709223,1361358716.327041,14556,-3312,-2440,nan,0.000000
2,5,5,15,12045316,135285876,-7142395668391706602,1361358716.327041,13920,-172,-956,nan,0.000000
2,5,5,15,12045316,135285876,-7142395668391703981,1361358716.327041,15052,-2256,-364,nan,0.000000
2,5,6,15,12045316,135285907,-7142395668391701360,1361358716.327281,14268,-2508,-100,nan,0.000000
2,5,6,15,12045316,135285907,-7142395668391698739,1361358716.327281,15512,436,-1408,nan,0.000000
2,5,6,15,12045316,135285907,-7142395668391696118,1361358716.327281,22228,-4640,-7124,nan,0.000000
2,5,6,15,12045316,135285907,-7142395668391693497,1361358716.327281,14760,-1092,-7028,nan,0.000000
2,5,6,15,12045316,135285907,-7142395668391690876,1361358716.327281,16476,-36,-5472,nan,0.000000
2,5,7,15,12045316,135285939,-7142395668391688255,1361358716.327515,13836,-2832,-3676,nan,0.000000
2,5,7,15,12045316,135285939,-7142395668391685634,1361358716.327515,13928,-2428,-3076,nan,0.000000
2,5,7,15,12045316,135285939,-7142395668391683013,1361358716.327515,13952,-4440,-1520,nan,0.000000
2,5,7,15,12045316,135285939,-7142395668391680392,1361358716.327515,16732,-1708,-1484,nan,0.000000
2,5,7,15,12045316,135285939,-7142395668391677771,1361358716.327515,16268,-2160,396,nan,0.000000
2,5,8,15,12045316,135285971,-7142395668391675150,1361358716.327778,15756,-4312,-3544,nan,0.000000
2,5,8,15,12045316,135285971,-7142395668391672529,1361358716.327778,15888,-1540,-524,nan,0.000000
2,5,8,15,12045316,135285971,-7142395668391669908,1361358716.327778,16172,-688,1212,nan,0.000000
2,5,8,15,12045316,135285971,-7142395668391667287,1361358716.327778,17852,-944,-744,nan,0.000000
2,5,8,15,12045316,135285971,-7142395668391664666,1361358716.327778,12876,-1248,1140,nan,0.000000
2,5,9,15,12045316,135286002,-7142395668391662045,1361358716.328042,16136,-776,512,nan,0.000000
2,5,9,15,12045316,135286002,-7142395668391659424,1361358716.328042,18220,1064,-2824,nan,0.000000
2,5,9,15,12045316,135286002,-7142395668391656803,1361358716.328042,16132,120,-2392,nan,0.000000
2,5,9,15,12045316,135286002,-7142395668391654182,1361358716.328042,16984,32,-1972,nan,0.000000
2,5,9,15,12045316,135286002,-7142395668391651561,1361358716.328042,16092,-1056,-1648,nan,0.000000
2,5,10,15,12045316,135286034,-7142395668391648940,1361358716.328302,15848,-2864,-2288,nan,0.000000
2,5,10,15,12045316,135286034,-7142395668391646319,1361358716.328302,15380,-1944,-1656,nan,0.000000
2,5,10,15,12045316,135286034,-7142395668391643698,1361358716.328302,15800,-2816,-944,nan,0.000000
2,5,10,15,12045316,135286034,-7142395668391641077,1361358716.328302,15884,-2308,-1124,nan,0.000000
2,5,10,15,12045316,135286034,-7142395668391638456,1361358716.328302,16336,-2392,-1088,nan,0.000000
1,5,11,0,12126699,135367010,-8576708600649740041,1361358716.328540,15680,-2268,-716,nan,0.000000
1,5,11,1,12126699,135367010,-8576708600649737420,1361358716.328540,15452,-2104,-560,nan,0.000000
2,5,12,1,12126699,135367041,-8576708600649734799,1361358716.328653,15360,-2444,60,nan,0.000000
2,5,12,1,12126699,135367041,-8576708600649732178,1361358716.328653,15952,-284,-892,nan,0.000000
2,5,12,1,12126699,135367041,-8576708600649729557,1361358716.328653,17616,-836,-2292,nan,0.000000
2,5,12,1,12126699,135367041,-8576708600649726936,1361358716.328653,14948,-1732,-904,nan,0.000000
2,5,12,1,12126699,135367041,-8576708600649724315,1361358716.328653,15208,-3088,-172,nan,0.000000
2,5,13,1,12126699,135367073,-8576708600649721694,1361358716.328889,16220,-2784,268,nan,0.000000
2,5,13,1,12126699,135367073,-8576708600649719073,1361358716.328889,15100,-736,-1148,nan,0.000000
2,5,13,1,12126699,135367073,-8576708600649716452,1361358716.328889,17060,-844,-960,nan,0.000000
2,5,13,1,12126699,135367073,-8576708600649713831,1361358716.328889,16272,112,876,nan,0.000000
2,5,13,1,12126699,135367073,-8576708600649711210,1361358716.328889,16220,-2416,1140,nan,0.000000
2,5,14,1,12126699,135367105,-8576708600649708589,1361358716.329171,15940,-2072,1704,nan,0.000000
2,5,14,1,12126699,135367105,-8576708600649705968,1361358716.329171,15208,-488,828,nan,0.000000
2,5,14,1,12126699,135367105,-8576708600649703347,1361358716.329171,15948,-392,2016,nan,0.000000
2,5,14,1,12126699,135367105,-8576708600649700726,1361358716.329171,16728,-760,-1204,nan,0.000000
2,5,14,1,12126699,135367105,-8576708600649698105,1361358716.329171,16664,860,-2152,nan,0.000000
2,5,15,1,12126699,135367136,-8576708600649695484,1361358716.329409,17048,-4160,-2324,nan,0.000000
2,5,15,1,12126699,135367136,-8576708600649692863,1361358716.329409,14296,-1348,-2876,nan,0.000000
2,5,15,1,12126699,135367136,-8576708600649690242,1361358716.329409,16428,-3388,-1712,nan,0.000000
2,5,15,1,12126699,135367136,-8576708600649687621,1361358716.329409,15284,-4116,-3096,nan,0.000000
2,5,15,1,12126699,135367136,-8576708600649685000,1361358716.329409,15436,-5024,-2664,nan,0.000000
2,5,0,1,12126699,135367168,-8576708600649682379,1361358716.329644,15332,-3276,-2972,nan,0.000000
2,5,0,1,12126699,135367168,-8576708600649679758,1361358716.329644,15352,-2860,-2864,nan,0.000000
2,5,0,1,12126699,135367168,-8576708600649677137,1361358716.329644,16440,-2396,-2872,nan,0.000000
2,5,0,1,12126699,135367168,-8576708600649674516,1361358716.329644,16468,-2136,-2544,nan,0.000000
2,5,0,1,12126699,135367168,-8576708600649671895,1361358716.329644,15484,-3736,-2244,nan,0.000000
2,5,1,1,12126699,135367200,-8576708600649669274,1361358716.329879,15972,-2572,-2900,nan,0.000000
2,5,1,1,12126699,135367200,-8576708600649666653,1361358716.329879,15360,-1524,-1544,nan,0.000000
2,5,1,1,12126699,135367200,-8576708600649664032,1361358716.329879,15712,-3020,-1708,nan,0.000000
2,5,1,1,12126699,135367200,-8576708600649661411,1361358716.329879,15776,-2052,-1560,nan,0.000000
2,5,1,1,12126699,135367200,-8576708600649658790,1361358716.329879,15560,-2348,-940,nan,0.000000
1,5,2,0,12208081,135448395,-506359215217136396,1361358716.330112,15932,-1872,-988,nan,0.000000
1,5,2,0,12208081,135448395,-506359215217133775,1361358716.330112,15992,-1680,-884,nan,0.000000
2,5,3,0,12208081,135448427,-506359215217131154,1361358716.330223,16148,-1904,-864,nan,0.000000
2,5,3,0,12208081,135448427,-506359215217128533,1361358716.330223,15880,-1684,-932,nan,0.000000
2,5,3,0,12208081,135448427,-506359215217125912,1361358716.330223,15988,-1824,-640,nan,0.000000
2,5,3,0,12208081,135448427,-506359215217123291,1361358716.330223,16068,-2248,-492,nan,0.000000
2,5,3,0,12208081,135448427,-506359215217120670,1361358716.330223,15824,-1604,-900,nan,0.000000
2,5,4,0,12208081,135448458,-506359215217118049,1361358716.330459,15968,-1300,-628,nan,0.000000
2,5,4,0,12208081,135448458,-506359215217115428,1361358716.330459,16092,-1916,-328,nan,0.000000
2,5,4,0,12208081,135448458,-506359215217112807,1361358716.330459,16020,-1860,-416,nan,0.000000
2,5,4,0,12208081,135448458,-506359215217110186,1361358716.330459,15484,-1836,364,nan,0.000000
2,5,4,0,12208081,135448458,-506359215217107565,1361358716.330459,16476,-2744,1280,nan,0.000000
2,5,5,0,12208081,135448490,-506359215217104944,1361358716.330692,15476,-2524,748,nan,0.000000
2,5,5,0,12208081,135448490,-506359215217102323,1361358716.330692,15656,-1696,724,nan,0.000000
2,5,5,0,12208081,135448490,-506359215217099702,1361358716.330692,16416,-1328,228,nan,0.000000
2,5,5,0,12208081,135448490,-506359215217097081,1361358716.330692,15944,-1976,452,nan,0.000000
2,5,5,0,12208081,135448490,-506359215217094460,1361358716.330692,15984,-1760,532,nan,0.000000
2,5,6,0,12208081,135448522,-506359215217091839,1361358716.330926,16600,-2788,-232,nan,0.000000
2,5,6,0,12208081,135448522,-506359215217089218,1361358716.330926,15604,-2344,-1188,nan,0.000000
2,5,6,0,12208081,135448522,-506359215217086597,1361358716.330926,15368,-2192,-296,nan,0.000000
2,5,6,0,12208081,135448522,-506359215217083976,1361358716.330926,15728,-2948,-740,nan,0.000000
2,5,6,0,12208081,135448522,-506359215217081355,1361358716.330926,15552,-2744,-1288,nan,0.000000
2,5,7,0,12208081,135448554,-506359215217078734,1361358716.331188,16212,-2800,-1588,nan,0.000000
2,5,7,0,12208081,135448554,-506359215217076113,1361358716.331188,15200,-3084,-2276,nan,0.000000
2,5,7,0,12208081,135448554,-506359215217073492,1361358716.331188,15740,-2676,-2768,nan,0.000000
2,5,7,0,12208081,135448554,-506359215217070871,1361358716.331188,16344,-3844,-2760,nan,0.000000
2,5,7,0,12208081,135448554,-506359215217068250,1361358716.331188,15760,-3276,-2156,nan,0.000000
2,5,8,0,12208081,135448585,-506359215217065629,1361358716.331424,15768,-2208,-2392,nan,0.000000
2,5,8,0,12208081,135448585,-506359215217063008,1361358716.331424,15644,-2456,-2148,nan,0.000000
2,5,8,0,12208081,135448585,-506359215217060387,1361358716.331424,15828,-2524,-1700,nan,0.000000
2,5,8,0,12208081,135448585,-506359215217057766,1361358716.331424,16004,-2980,-1760,nan,0.000000
2,5,8,0,12208081,135448585,-506359215217055145,1361358716.331424,15412,-2520,-1456,nan,0.000000
1,5,9,0,12289463,135529782,-7136119678300215050,1361358716.331657,15964,-336,-800,nan,0.000000
1,5,9,0,12289463,135529782,-7136119678300212429,1361358716.331657,16416,-1764,1756,nan,0.000000
2,5,10,0,12289463,135529813,-7136119678300209808,1361358716.331771,15856,-1984,416,nan,0.000000
2,5,10,0,12289463,135529813,-7136119678300207187,1361358716.331771,16648,-3996,1916,nan,0.000000
2,5,10,0,12289463,135529813,-7136119678300204566,1361358716.331771,15812,-3888,1792,nan,0.000000
2,5,10,0,12289463,135529813,-7136119678300201945,1361358716.331771,14356,-1484,1248,nan,0.000000
2,5,10,0,12289463,135529813,-7136119678300199324,1361358716.331771,16196,-2728,2816,nan,0.000000
2,5,11,0,12289463,135529845,-7136119678300196703,1361358716.332006,16852,-1220,116,nan,0.000000
2,5,11,0,12289463,135529845,-7136119678300194082,1361358716.332006,15484,-3672,-140,nan,0.000000
2,5,11,0,12289463,135529845,-7136119678300191461,1361358716.332006,15536,-1656,-104,nan,0.000000
2,5,11,0,12289463,135529845,-7136119678300188840,1361358716.332006,15876,-3392,-84,nan,0.000000
2,5,11,0,12289463,135529845,-7136119678300186219,1361358716.332006,16152,-2704,396,nan,0.000000
2,5,12,0,12289463,135529877,-7136119678300183598,1361358716.332239,15692,-3084,532,nan,0.000000
2,5,12,0,12289463,135529877,-7136119678300180977,1361358716.332239,15716,-2932,144,nan,0.000000
2,5,12,0,12289463,135529877,-7136119678300178356,1361358716.332239,15728,-3224,636,nan,0.000000
2,5,12,0,12289463,135529877,-7136119678300175735,1361358716.332239,15712,-3100,576,nan,0.000000
2,5,12,0,12289463,135529877,-7136119678300173114,1361358716.332239,15620,-3320,740,nan,0.000000
2,5,13,0,12289463,135529908,-7136119678300170493,1361358716.332475,15752,-3004,784,nan,0.000000
2,5,13,0,12289463,135529908,-7136119678300167872,1361358716.332475,15760,-3044,552,nan,0.000000
2,5,13,0,12289463,135529908,-7136119678300165251,1361358716.332475,15688,-2736,784,nan,0.000000
2,5,13,0,12289463,135529908,-7136119678300162630,1361358716.332475,15912,-2792,952,nan,0.000000
2,5,13,0,12289463,135529908,-7136119678300160009,1361358716.332475,15956,-3328,116,nan,0.000000
2,5,14,0,12289463,135529940,-7136119678300157388,1361358716.332710,15604,-2840,1156,nan,0.000000
2,5,14,0,12289463,135529940,-7136119678300154767,1361358716.332710,15796,-1272,1380,nan,0.000000
2,5,14,0,12289463,135529940,-7136119678300152146,1361358716.332710,15696,-2148,1580,nan,0.000000
2,5,14,0,12289463,135529940,-7136119678300149525,1361358716.332710,15712,-3404,1676,nan,0.000000
2,5,14,0,12289463,135529940,-7136119678300146904,1361358716.332710,15568,-3812,2328,nan,0.000000
2,5,15,0,12289463,135529972,-7136119678300144283,1361358717.410568,15812,-3332,1560,nan,0.000000
2,5,15,0,12289463,135529972,-7136119678300141662,1361358717.410568,15972,-2920,684,nan,0.000000
2,5,15,0,12289463,135529972,-7136119678300139041,1361358717.410568,16056,-1920,972,nan,0.000000
2,5,15,0,12289463,135529972,-7136119678300136420,1361358717.410568,15444,-2220,396,nan,0.000000
2,5,15,0,12289463,135529972,-7136119678300133799,1361358717.410568,15644,-2644,1680,nan,0.000000
1,5,0,0,12370847,135611167,-6052106773811292154,1361358717.411891,15080,-1772,1120,nan,0.000000
1,5,0,0,12370847,135611167,-6052106773811289533,1361358717.411891,15556,-4216,2432,nan,0.000000
2,5,1,0,12370847,135611199,-6052106773811286912,1361358717.412616,15968,-3732,2280,nan,0.000000
2,5,1,0,12370847,135611199,-6052106773811284291,1361358717.412616,16008,-3328,1336,nan,0.000000
2,5,1,0,12370847,135611199,-6052106773811281670,1361358717.412616,16320,208,-460,nan,0.000000
2,5,1,0,12370847,135611199,-6052106773811279049,1361358717.412616,15048,-3188,2116,nan,0.000000
2,5,1,0,12370847,135611199,-6052106773811276428,1361358717.412616,15488,-5320,2688,nan,0.000000
2,5,2,0,12370847,135611231,-6052106773811273807,1361358717.414752,15744,-2184,1868,nan,0.000000
2,5,2,0,12370847,135611231,-6052106773811271186,1361358717.414752,16108,-2952,844,nan,0.000000
2,5,2,0,12370847,135611231,-6052106773811268565,1361358717.414752,15700,-544,56,nan,0.000000
2,5,2,0,12370847,135611231,-6052106773811265944,1361358717.414752,15856,-2284,588,nan,0.000000
2,5,2,0,12370847,135611231,-6052106773811263323,1361358717.414752,16088,-3016,524,nan,0.000000
2,5,3,0,12370847,135611263,-6052106773811260702,1361358717.417016,15444,-2932,1300,nan,0.000000
2,5,3,0,12370847,135611263,-6052106773811258081,1361358717.417016,15956,-3572,908,nan,0.000000
2,5,3,0,12370847,135611263,-6052106773811255460,1361358717.417016,15828,-1872,116,nan,0.000000
2,5,3,0,12370847,135611263,-6052106773811252839,1361358717.417016,16036,-1852,496,nan,0.000000
2,5,3,0,12370847,135611263,-6052106773811250218,1361358717.417016,16028,-1540,1100,nan,0.000000
2,5,4,0,12370847,135611295,-6052106773811247597,1361358717.419803,16064,-1792,328,nan,0.000000
2,5,4,0,12370847,135611295,-6052106773811244976,1361358717.419803,16256,-1704,536,nan,0.000000
2,5,4,0,12370847,135611295,-6052106773811242355,1361358717.419803,15524,-2604,1080,nan,0.000000
2,5,4,0,12370847,135611295,-6052106773811239734,1361358717.419803,15572,-3092,1260,nan,0.000000
2,5,4,0,12370847,135611295,-6052106773811237113,1361358717.419803,15836,-2612,-116,nan,0.000000
2,5,5,0,12370847,135611326,-6052106773811234492,1361358717.422429,15672,-2452,-688,nan,0.000000
2,5,5,0,12370847,135611326,-6052106773811231871,1361358717.422429,16416,-2496,-196,nan,0.000000
2,5,5,0,12370847,135611326,-6052106773811229250,1361358717.422429,17188,-816,960,nan,0.000000
2,5,5,0,12370847,135611326,-6052106773811226629,1361358717.422429,16080,-1180,2088,nan,0.000000
2,5,5,0,12370847,135611326,-6052106773811224008,1361358717.422429,14692,-1632,1248,nan,0.000000
2,5,6,0,12370847,135611359,-6052106773811221387,1361358719.894513,15656,-2216,2312,nan,0.000000
2,5,6,0,12370847,135611359,-6052106773811218766,1361358719.894513,15344,-1724,2096,nan,0.000000
2,5,6,0,12370847,135611359,-6052106773811216145,1361358719.894513,15664,-1460,1340,nan,0.000000
2,5,6,0,12370847,135611359,-6052106773811213524,1361358719.894513,15648,-2096,984,nan,0.000000
2,5,6,0,12370847,135611359,-6052106773811210903,1361358719.894513,17020,-3344,756,nan,0.000000
1,5,7,0,12452226,135692552,3461092153902172169,1361358719.895666,15692,-3036,1400,nan,0.000000
1,5,7,0,12452226,135692552,3461092153902174790,1361358719.895666,15296,-2932,400,nan,0.000000
2,5,8,0,12452226,135692584,3461092153902177411,1361358719.896203,15028,-3476,324,nan,0.000000
2,5,8,0,12452226,135692584,3461092153902180032,1361358719.896203,16400,-3604,-728,nan,0.000000
2,5,8,0,12452226,135692584,3461092153902182653,1361358719.896203,15512,-3220,-484,nan,0.000000
2,5,8,0,12452226,135692584,3461092153902185274,1361358719.896203,15928,-3468,-1160,nan,0.000000
2,5,8,0,12452226,135692584,3461092153902187895,1361358719.896203,15532,-3608,-968,nan,0.000000
2,5,9,0,12452226,135692616,3461092153902190516,1361358719.897053,15672,-3228,-1312,nan,0.000000
2,5,9,0,12452226,135692616,3461092153902193137,1361358719.897053,16148,-2668,-800,nan,0.000000
2,5,9,0,12452226,135692616,3461092153902195758,1361358719.897053,16264,-2900,-784,nan,0.000000
2,5,9,0,12452226,135692616,3461092153902198379,1361358719.897053,15564,-3116,-772,nan,0.000000
2,5,9,0,12452226,135692616,3461092153902201000,1361358719.897053,15916,-3276,-1028,nan,0.000000
2,5,10,0,12452226,135692648,3461092153902203621,1361358719.898179,15552,-3004,-592,nan,0.000000
2,5,10,0,12452226,135692648,3461092153902206242,1361358719.898179,15868,-3148,-520,nan,0.000000
2,5,10,0,12452226,135692648,3461092153902208863,1361358719.898179,15784,-2888,-892,nan,0.000000
2,5,10,0,12452226,135692648,3461092153902211484,1361358719.898179,15828,-2128,-132,nan,0.000000
2,5,10,0,12452226,135692648,3461092153902214105,1361358719.898179,15756,-3076,388,nan,0.000000
2,5,11,0,12452226,135692680,3461092153902216726,1361358719.899399,15740,-2760,172,nan,0.000000
2,5,11,0,12452226,135692680,3461092153902219347,1361358719.899399,15652,-2324,420,nan,0.000000
2,5,11,0,12452226,135692680,3461092153902221968,1361358719.899399,15976,-2920,744,nan,0.000000
2,5,11,0,12452226,135692680,3461092153902224589,1361358719.899399,15864,-2048,540,nan,0.000000
2,5,11,0,12452226,135692680,3461092153902227210,1361358719.899399,16004,-1900,588,nan,0.000000
2,5,12,0,12452226,135692712,3461092153902229831,1361358719.903276,15820,-2240,1044,nan,0.000000
2,5,12,0,12452226,135692712,3461092153902232452,1361358719.903276,15824,-2516,1932,nan,0.000000
2,5,12,0,12452226,135692712,3461092153902235073,1361358719.903276,16012,-3624,1560,nan,0.000000
2,5,12,0,12452226,135692712,3461092153902237694,1361358719.903276,15544,-1976,856,nan,0.000000
2,5,12,0,12452226,135692712,3461092153902240315,1361358719.903276,15940,-2212,908,nan,0.000000
2,5,13,0,12452226,135692744,3461092153902242936,1361358722.378481,15664,-2472,1696,nan,0.000000
2,5,13,0,12452226,135692744,3461092153902245557,1361358722.378481,15920,-2420,1552,nan,0.000000
2,5,13,0,12452226,135692744,3461092153902248178,1361358722.378481,15856,-1156,796,nan,0.000000
2,5,13,0,12452226,135692744,3461092153902250799,1361358722.378481,16112,-2760,1508,nan,0.000000
2,5,13,0,12452226,135692744,3461092153902253420,1361358722.378481,15788,-2496,1672,nan,0.000000
1,5,14,0,12533607,135773936,1154765343466364934,1361358722.379659,15868,-2488,1124,nan,0.000000
1,5,14,0,12533607,135773936,1154765343466367555,1361358722.379659,15776,-2764,1436,nan,0.000000
2,5,15,0,12533607,135773968,1154765343466370176,1361358722.380254,15748,-2544,1240,nan,0.000000
2,5,15,0,12533607,135773968,1154765343466372797,1361358722.380254,15744,-2544,1220,nan,0.000000
2,5,15,0,12533607,135773968,1154765343466375418,1361358722.380254,15696,-2832,1336,nan,0.000000
2,5,15,0,12533607,135773968,1154765343466378039,1361358722.380254,15776,-2640,1224,nan,0.000000
2,5,15,0,12533607,135773968,1154765343466380660,1361358722.380254,15772,-2796,1188,nan,0.000000
2,5,0,0,12533607,135774000,1154765343466383281,1361358722.381102,15752,-2752,1024,nan,0.000000
2,5,0,0,12533607,135774000,1154765343466385902,1361358722.381102,15792,-2832,996,nan,0.000000
2,5,0,0,12533607,135774000,1154765343466388523,1361358722.381102,15872,-2844,1200,nan,0.000000
2,5,0,0,12533607,135774000,1154765343466391144,1361358722.381102,15732,-2816,1024,nan,0.000000
2,5,0,0,12533607,135774000,1154765343466393765,1361358722.381102,15740,-2844,1040,nan,0.000000
2,5,1,0,12533607,135774032,1154765343466396386,1361358722.382165,15704,-2896,1048,nan,0.000000
2,5,1,0,12533607,135774032,1154765343466399007,1361358722.382165,15772,-3008,988,nan,0.000000
2,5,1,0,12533607,135774032,1154765343466401628,1361358722.382165,15692,-3040,924,nan,0.000000
2,5,1,0,12533607,135774032,1154765343466404249,1361358722.382165,15776,-2960,1004,nan,0.000000
2,5,1,0,12533607,135774032,1154765343466406870,1361358722.382165,15684,-2940,992,nan,0.000000
2,5,2,0,12533607,135774064,1154765343466409491,1361358722.382876,15712,-2932,832,nan,0.000000
2,5,2,0,12533607,135774064,1154765343466412112,1361358722.382876,15720,-2900,864,nan,0.000000
2,5,2,0,12533607,135774064,1154765343466414733,1361358722.382876,15712,-3012,968,nan,0.000000
2,5,2,0,12533607,135774064,1154765343466417354,1361358722.382876,15832,-3004,1032,nan,0.000000
2,5,2,0,12533607,135774064,1154765343466419975,1361358722.382876,15772,-2924,1024,nan,0.000000
2,5,3,0,12533607,135774096,1154765343466422596,1361358722.384114,15780,-2936,1076,nan,0.000000
2,5,3,0,12533607,135774096,1154765343466425217,1361358722.384114,15772,-2896,1004,nan,0.000000
2,5,3,0,12533607,135774096,1154765343466427838,1361358722.384114,15672,-2852,936,nan,0.000000
2,5,3,0,12533607,135774096,1154765343466430459,1361358722.384114,15816,-2816,1056,nan,0.000000
2,5,3,0,12533607,135774096,1154765343466433080,1361358722.384114,15772,-2860,948,nan,0.000000
2,5,4,0,12533607,135774128,1154765343466435701,1361358724.862379,15792,-2768,988,nan,0.000000
2,5,4,0,12533607,135774128,1154765343466438322,1361358724.862379,15776,-2804,776,nan,0.000000
2,5,4,0,12533607,135774128,1154765343466440943,1361358724.862379,15828,-2736,912,nan,0.000000
2,5,4,0,12533607,135774128,1154765343466443564,1361358724.862379,15768,-2812,992,nan,0.000000
2,5,4,0,12533607,135774128,1154765343466446185,1361358724.862379,15716,-2856,884,nan,0.000000
1,5,5,0,12614987,135855337,577319426328484867,1361358724.863519,15756,-2892,964,nan,0.000000
1,5,5,0,12614987,135855337,577319426328487488,1361358724.863519,16208,-2640,828,nan,0.000000
2,5,6,0,12614987,135855369,577319426328490109,1361358724.864194,15616,-2332,-384,nan,0.000000
2,5,6,0,12614987,135855369,577319426328492730,1361358724.864194,15196,-2284,1156,nan,0.000000
2,5,6,0,12614987,135855369,577319426328495351,1361358724.864194,15748,-3952,2132,nan,0.000000
2,5,6,0,12614987,135855369,577319426328497972,1361358724.864194,16188,-2324,1788,nan,0.000000
2,5,6,0,12614987,135855369,577319426328500593,1361358724.864194,16404,-1408,1152,nan,0.000000
2,5,7,0,12614987,135855401,577319426328503214,1361358724.865025,16084,-2020,240,nan,0.000000
2,5,7,0,12614987,135855401,577319426328505835,1361358724.865025,15628,-576,-480,nan,0.000000
2,5,7,0,12614987,135855401,577319426328508456,1361358724.865025,15944,292,-592,nan,0.000000
2,5,7,0,12614987,135855401,577319426328511077,1361358724.865025,15864,-2444,1356,nan,0.000000
2,5,7,0,12614987,135855401,577319426328513698,1361358724.865025,16740,-2856,1224,nan,0.000000
2,5,8,0,12614987,135855433,577319426328516319,1361358724.866065,14560,-1168,2552,nan,0.000000
2,5,8,0,12614987,135855433,577319426328518940,1361358724.866065,15500,-2072,3376,nan,0.000000
2,5,8,0,12614987,135855433,577319426328521561,1361358724.866065,15756,-1984,2400,nan,0.000000
2,5,8,0,12614987,135855433,577319426328524182,1361358724.866065,16932,-932,3588,nan,0.000000
2,5,8,0,12614987,135855433,577319426328526803,1361358724.866065,19080,-2584,3040,nan,0.000000
2,5,9,0,12614987,135855465,577319426328529424,1361358724.866884,17012,736,464,nan,0.000000
2,5,9,0,12614987,135855465,577319426328532045,1361358724.866884,13928,-472,264,nan,0.000000
2,5,9,0,12614987,135855465,577319426328534666,1361358724.866884,15172,-884,-2644,nan,0.000000
2,5,9,0,12614987,135855465,577319426328537287,1361358724.866884,17380,-652,256,nan,0.000000
2,5,9,0,12614987,135855465,577319426328539908,1361358724.866884,14680,-2604,256,nan,0.000000
2,5,10,0,12614987,135855497,577319426328542529,1361358724.868056,14732,-2572,40,nan,0.000000
2,5,10,0,12614987,135855497,577319426328545150,1361358724.868056,15376,-2716,128,nan,0.000000
2,5,10,0,12614987,135855497,577319426328547771,1361358724.868056,15300,-3160,1568,nan,0.000000
2,5,10,0,12614987,135855497,577319426328550392,1361358724.868056,16264,-5028,1656,nan,0.000000
2,5,10,0,12614987,135855497,577319426328553013,1361358724.868056,19016,-2692,1780,nan,0.000000
1,5,12,0,12696365,136018084,933028008300577795,1361358729.830158,14360,-3068,2876,nan,0.000000
1,5,12,0,12696365,136018084,933028008300580416,1361358729.830158,14748,-4312,2736,nan,0.000000
2,5,13,0,12696365,136018116,933028008300583037,1361358729.831000,17704,-1020,3112,nan,0.000000
2,5,13,0,12696365,136018116,933028008300585658,1361358729.831000,20856,-5712,2700,nan,0.000000
2,5,13,0,12696365,136018116,933028008300588279,1361358729.831000,15976,2008,4,nan,0.000000
2,5,13,0,12696365,136018116,933028008300590900,1361358729.831000,13388,-824,-2596,nan,0.000000
2,5,13,0,12696365,136018116,933028008300593521,1361358729.831000,16764,2324,-164,nan,0.000000
2,5,14,0,12696365,136018148,933028008300596142,1361358729.831966,15440,-4180,-348,nan,0.000000
2,5,14,0,12696365,136018148,933028008300598763,1361358729.831966,15860,-1792,-1300,nan,0.000000
2,5,14,0,12696365,136018148,933028008300601384,1361358729.831966,14732,-3216,416,nan,0.000000
2,5,14,0,12696365,136018148,933028008300604005,1361358729.831966,14124,-2704,1140,nan,0.000000
2,5,14,0,12696365,136018148,933028008300606626,1361358729.831966,15184,-5056,1360,nan,0.000000
2,5,15,0,12696365,136018180,933028008300609247,1361358729.833038,17768,-3612,3160,nan,0.000000
2,5,15,0,12696365,136018180,933028008300611868,1361358729.833038,21324,-1440,-1080,nan,0.000000
2,5,15,0,12696365,136018180,933028008300614489,1361358729.833038,15540,500,-1332,nan,0.000000
2,5,15,0,12696365,136018180,933028008300617110,1361358729.833038,13644,-2476,-1316,nan,0.000000
2,5,15,0,12696365,136018180,933028008300619731,1361358729.833038,14656,-828,992,nan,0.000000
2,5,0,0,12696365,136018212,933028008300622352,1361358729.833985,14572,-2660,632,nan,0.000000
2,5,0,0,12696365,136018212,933028008300624973,1361358729.833985,14784,-3024,2016,nan,0.000000
2,5,0,0,12696365,136018212,933028008300627594,1361358729.833985,14764,-3316,3524,nan,0.000000
2,5,0,0,12696365,136018212,933028008300630215,1361358729.833985,16240,-992,2280,nan,0.000000
2,5,0,0,12696365,136018212,933028008300632836,1361358729.833985,19492,-5944,5448,nan,0.000000
2,5,1,0,12696365,136018244,933028008300635457,1361358729.834844,18708,3068,-1884,nan,0.000000
2,5,1,0,12696365,136018244,933028008300638078,1361358729.834844,14920,-1264,-252,nan,0.000000
2,5,1,0,12696365,136018244,933028008300640699,1361358729.834844,15004,3028,-196,nan,0.000000
2,5,1,0,12696365,136018244,933028008300643320,1361358729.834844,15796,-4292,-1144,nan,0.000000
2,5,1,0,12696365,136018244,933028008300645941,1361358729.834844,15028,-1480,-124,nan,0.000000
2,5,2,0,12696365,136018276,933028008300648562,1361358729.835935,14932,-2348,432,nan,0.000000
2,5,2,0,12696365,136018276,933028008300651183,1361358729.835935,15408,-3560,2112,nan,0.000000
2,5,2,0,12696365,136018276,933028008300653804,1361358729.835935,15580,-5724,2268,nan,0.000000
2,5,2,0,12696365,136018276,933028008300656425,1361358729.835935,19880,-1472,908,nan,0.000000
2,5,2,0,12696365,136018276,933028008300659046,1361358729.835935,17008,1548,-1856,nan,0.000000
1,5,3,0,12777743,136018308,4613965246711508993,1361358729.836849,15848,416,-660,nan,0.000000
1,5,3,15,12777743,136018308,4613965246711511614,1361358729.836849,14648,-1208,1400,nan,0.000000
2,5,4,15,12777743,136018340,4613965246711514235,1361358729.837934,15024,-1860,2312,nan,0.000000
2,5,4,15,12777743,136018340,4613965246711516856,1361358729.837934,14536,-2936,3080,nan,0.000000
2,5,4,15,12777743,136018340,4613965246711519477,1361358729.837934,14260,-2524,3832,nan,0.000000
2,5,4,15,12777743,136018340,4613965246711522098,1361358729.837934,16384,40,3600,nan,0.000000
2,5,4,15,12777743,136018340,4613965246711524719,1361358729.837934,24952,-2668,1704,nan,0.000000
2,5,5,15,12777743,136018372,4613965246711527340,1361358729.838411,12044,1628,876,nan,0.000000
2,5,5,15,12777743,136018372,4613965246711529961,1361358729.838411,17604,636,-3116,nan,0.000000
2,5,5,15,12777743,136018372,4613965246711532582,1361358729.838411,14384,-364,380,nan,0.000000
2,5,5,15,12777743,136018372,4613965246711535203,1361358729.838411,14812,-2172,-264,nan,0.000000
2,5,5,15,12777743,136018372,4613965246711537824,1361358729.838411,15108,-3500,-192,nan,0.000000
2,5,6,15,12777743,136018404,4613965246711540445,1361358729.840189,15204,-3228,1396,nan,0.000000
2,5,6,15,12777743,136018404,4613965246711543066,1361358729.840189,15356,-5928,1848,nan,0.000000
2,5,6,15,12777743,136018404,4613965246711545687,1361358729.840189,17848,-4144,1716,nan,0.000000
2,5,6,15,12777743,136018404,4613965246711548308,1361358729.840189,18976,-2652,-112,nan,0.000000
2,5,6,15,12777743,136018404,4613965246711550929,1361358729.840189,15216,3548,-684,nan,0.000000
2,5,7,15,12777743,136018436,4613965246711553550,1361358729.840845,16256,-4784,-784,nan,0.000000
2,5,7,15,12777743,136018436,4613965246711556171,1361358729.840845,14816,-908,792,nan,0.000000
2,5,7,15,12777743,136018436,4613965246711558792,1361358729.840845,13576,-2056,1724,nan,0.000000
2,5,7,15,12777743,136018436,4613965246711561413,1361358729.840845,15060,-3016,2516,nan,0.000000
2,5,7,15,12777743,136018436,4613965246711564034,1361358729.840845,15700,-2900,3708,nan,0.000000
2,5,8,15,12777743,136018468,4613965246711566655,1361358729.842202,15008,-2232,2804,nan,0.000000
2,5,8,15,12777743,136018468,4613965246711569276,1361358729.842202,17436,-4324,5016,nan,0.000000
2,5,8,15,12777743,136018468,4613965246711571897,1361358729.842202,22492,1884,-1656,nan,0.000000
2,5,8,15,12777743,136018468,4613965246711574518,1361358729.842202,11764,-16,144,nan,0.000000
2,5,8,15,12777743,136018468,4613965246711577139,1361358729.842202,17272,1692,-1732,nan,0.000000
2,5,9,15,12777743,136018500,4613965246711579760,1361358732.312275,15576,-3008,396,nan,0.000000
2,5,9,15,12777743,136018500,4613965246711582381,1361358732.312275,14180,-1920,-1196,nan,0.000000
2,5,9,15,12777743,136018500,4613965246711585002,1361358732.312275,14272,-3928,1132,nan,0.000000
2,5,9,15,12777743,136018500,4613965246711587623,1361358732.312275,14740,-3040,1544,nan,0.000000
2,5,9,15,12777743,136018500,4613965246711590244,1361358732.312275,16760,-5664,1736,nan,0.000000
1,5,10,0,12859122,136099466,6123629922661927937,1361358732.313926,19364,3316,-2140,nan,0.000000
1,5,10,1,12859122,136099466,6123629922661930558,1361358732.313926,14696,-3500,-716,nan,0.000000
2,5,11,1,12859122,136099498,6123629922661933179,1361358732.314721,15672,800,428,nan,0.000000
2,5,11,1,12859122,136099498,6123629922661935800,1361358732.314721,14008,-2388,1028,nan,0.000000
2,5,11,1,12859122,136099498,6123629922661938421,1361358732.314721,13972,-1336,1592,nan,0.000000
2,5,11,1,12859122,136099498,6123629922661941042,1361358732.314721,15036,-2324,3184,nan,0.000000
2,5,11,1,12859122,136099498,6123629922661943663,1361358732.314721,14688,-2296,3788,nan,0.000000
2,5,12,1,12859122,136099530,6123629922661946284,1361358732.315933,17460,1020,3432,nan,0.000000
2,5,12,1,12859122,136099530,6123629922661948905,1361358732.315933,24004,-2008,3076,nan,0.000000
2,5,12,1,12859122,136099530,6123629922661951526,1361358732.315933,12388,3844,-1416,nan,0.000000
2,5,12,1,12859122,136099530,6123629922661954147,1361358732.315933,16440,-92,-788,nan,0.000000
2,5,12,1,12859122,136099530,6123629922661956768,1361358732.315933,15032,412,412,nan,0.000000
2,5,13,1,12859122,136099562,6123629922661959389,1361358732.316845,14780,-3180,-920,nan,0.000000
2,5,13,1,12859122,136099562,6123629922661962010,1361358732.316845,15816,-2340,656,nan,0.000000
2,5,13,1,12859122,136099562,6123629922661964631,1361358732.316845,14756,-3312,988,nan,0.000000
2,5,13,1,12859122,136099562,6123629922661967252,1361358732.316845,15608,-4108,1656,nan,0.000000
2,5,13,1,12859122,136099562,6123629922661969873,1361358732.316845,17384,-5532,1640,nan,0.000000
2,5,14,1,12859122,136099594,6123629922661972494,1361358732.317929,21060,-2772,460,nan,0.000000
2,5,14,1,12859122,136099594,6123629922661975115,1361358732.317929,12004,3872,-1300,nan,0.000000
2,5,14,1,12859122,136099594,6123629922661977736,1361358732.317929,18768,-4568,196,nan,0.000000
2,5,14,1,12859122,136099594,6123629922661980357,1361358732.317929,14664,-932,656,nan,0.000000
2,5,14,1,12859122,136099594,6123629922661982978,1361358732.317929,14112,-1884,1604,nan,0.000000
2,5,15,1,12859122,136099626,6123629922661985599,1361358732.319025,14640,-2204,2972,nan,0.000000
2,5,15,1,12859122,136099626,6123629922661988220,1361358732.319025,13072,-3276,2536,nan,0.000000
2,5,15,1,12859122,136099626,6123629922661990841,1361358732.319025,15200,-2172,3052,nan,0.000000
2,5,15,1,12859122,136099626,6123629922661993462,1361358732.319025,18568,-3968,4776,nan,0.000000
2,5,15,1,12859122,136099626,6123629922661996083,1361358732.319025,23120,1828,-988,nan,0.000000
2,5,0,1,12859122,136099658,6123629922661998704,1361358734.796225,11596,-1548,1220,nan,0.000000
2,5,0,1,12859122,136099658,6123629922662001325,1361358734.796225,15896,1796,-2384,nan,0.000000
2,5,0,1,12859122,136099658,6123629922662003946,1361358734.796225,15792,-2460,1380,nan,0.000000
2,5,0,1,12859122,136099658,6123629922662006567,1361358734.796225,14468,-2268,-288,nan,0.000000
2,5,0,1,12859122,136099658,6123629922662009188,1361358734.796225,14864,-3480,288,nan,0.000000
1,5,1,0,12940500,136180849,-5695360250245364732,1361358734.797853,15132,-7568,812,nan,0.000000
1,5,1,0,12940500,136180849,-5695360250245362111,1361358734.797853,18976,-1328,1276,nan,0.000000
2,5,2,0,12940500,136180881,-5695360250245359490,1361358734.800015,17768,-3444,-876,nan,0.000000
2,5,2,0,12940500,136180881,-5695360250245356869,1361358734.800015,17152,3552,-348,nan,0.000000
2,5,2,0,12940500,136180881,-5695360250245354248,1361358734.800015,14264,-5280,-1192,nan,0.000000
2,5,2,0,12940500,136180881,-5695360250245351627,1361358734.800015,15192,-344,896,nan,0.000000
2,5,2,0,12940500,136180881,-5695360250245349006,1361358734.800015,13324,-2240,1220,nan,0.000000
2,5,3,0,12940500,136180913,-5695360250245346385,1361358734.800970,14212,-2088,2492,nan,0.000000
2,5,3,0,12940500,136180913,-5695360250245343764,1361358734.800970,15264,-3200,3492,nan,0.000000
2,5,3,0,12940500,136180913,-5695360250245341143,1361358734.800970,17196,-1036,2036,nan,0.000000
2,5,3,0,12940500,136180913,-5695360250245338522,1361358734.800970,18760,-7364,6356,nan,0.000000
2,5,3,0,12940500,136180913,-5695360250245335901,1361358734.800970,19780,3220,-1652,nan,0.000000
2,5,4,0,12940500,136180944,-5695360250245333280,1361358734.801608,12180,-2512,276,nan,0.000000
2,5,4,0,12940500,136180944,-5695360250245330659,1361358734.801608,16928,3768,-1836,nan,0.000000
2,5,4,0,12940500,136180944,-5695360250245328038,1361358734.801608,15264,-5124,-172,nan,0.000000
2,5,4,0,12940500,136180944,-5695360250245325417,1361358734.801608,13924,-1724,228,nan,0.000000
2,5,4,0,12940500,136180944,-5695360250245322796,1361358734.801608,14336,-3808,1212,nan,0.000000
2,5,5,0,12940500,136180976,-5695360250245320175,1361358734.802338,15392,-3392,1940,nan,0.000000
2,5,5,0,12940500,136180976,-5695360250245317554,1361358734.802338,16152,-6964,1608,nan,0.000000
2,5,5,0,12940500,136180976,-5695360250245314933,1361358734.802338,21772,-524,2476,nan,0.000000
2,5,5,0,12940500,136180976,-5695360250245312312,1361358734.802338,15184,-8336,2140,nan,0.000000
2,5,5,0,12940500,136180976,-5695360250245309691,1361358734.802338,14192,5060,-4028,nan,0.000000
2,5,6,0,12940500,136181008,-5695360250245307070,1361358734.803099,17424,-2976,1640,nan,0.000000
2,5,6,0,12940500,136181008,-5695360250245304449,1361358734.803099,16020,-1960,-28,nan,0.000000
2,5,6,0,12940500,136181008,-5695360250245301828,1361358734.803099,13464,-3664,1708,nan,0.000000
2,5,6,0,12940500,136181008,-5695360250245299207,1361358734.803099,13708,-2196,2656,nan,0.000000
2,5,6,0,12940500,136181008,-5695360250245296586,1361358734.803099,14468,-2372,2944,nan,0.000000
2,5,7,0,12940500,136181041,-5695360250245293965,1361358737.280184,16276,-2884,3516,nan,0.000000
2,5,7,0,12940500,136181041,-5695360250245291344,1361358737.280184,19936,-3216,6648,nan,0.000000
2,5,7,0,12940500,136181041,-5695360250245288723,1361358737.280184,20276,2076,1292,nan,0.000000
2,5,7,0,12940500,136181041,-5695360250245286102,1361358737.280184,10672,-2500,1164,nan,0.000000
2,5,7,0,12940500,136181041,-5695360250245283481,1361358737.280184,18036,3808,-1608,nan,0.000000
1,5,8,0,13021876,136262229,-569299685143102451,1361358737.281289,13968,-680,-920,nan,0.000000
1,5,8,0,13021876,136262229,-569299685143099830,1361358737.281289,15176,-2544,1320,nan,0.000000
2,5,9,0,13021876,136262261,-569299685143097209,1361358737.281867,15420,-2628,1916,nan,0.000000
2,5,9,0,13021876,136262261,-569299685143094588,1361358737.281867,15804,-5416,2536,nan,0.000000
2,5,9,0,13021876,136262261,-569299685143091967,1361358737.281867,17784,-3640,2612,nan,0.000000
2,5,9,0,13021876,136262261,-569299685143089346,1361358737.281867,19512,-1832,-180,nan,0.000000
2,5,9,0,13021876,136262261,-569299685143086725,1361358737.281867,14124,2372,-800,nan,0.000000
2,5,10,0,13021876,136262293,-569299685143084104,1361358737.282854,16552,-3996,356,nan,0.000000
2,5,10,0,13021876,136262293,-569299685143081483,1361358737.282854,14640,-1756,1128,nan,0.000000
2,5,10,0,13021876,136262293,-569299685143078862,1361358737.282854,14264,-2068,2172,nan,0.000000
2,5,10,0,13021876,136262293,-569299685143076241,1361358737.282854,14240,-2036,2976,nan,0.000000
2,5,10,0,13021876,136262293,-569299685143073620,1361358737.282854,14352,-3044,3440,nan,0.000000
2,5,11,0,13021876,136262325,-569299685143070999,1361358737.283773,16508,-1312,2976,nan,0.000000
2,5,11,0,13021876,136262325,-569299685143068378,1361358737.283773,19036,-5676,5348,nan,0.000000
2,5,11,0,13021876,136262325,-569299685143065757,1361358737.283773,19968,3388,-1248,nan,0.000000
2,5,11,0,13021876,136262325,-569299685143063136,1361358737.283773,12720,-1292,192,nan,0.000000
2,5,11,0,13021876,136262325,-569299685143060515,1361358737.283773,16444,2004,-332,nan,0.000000
2,5,12,0,13021876,136262357,-569299685143057894,1361358737.284871,16296,-1812,160,nan,0.000000
2,5,12,0,13021876,136262357,-569299685143055273,1361358737.284871,14744,-1964,-140,nan,0.000000
2,5,12,0,13021876,136262357,-569299685143052652,1361358737.284871,14992,-3120,644,nan,0.000000
2,5,12,0,13021876,136262357,-569299685143050031,1361358737.284871,15388,-2740,1592,nan,0.000000
2,5,12,0,13021876,136262357,-569299685143047410,1361358737.284871,16280,-5576,1696,nan,0.000000
2,5,13,0,13021876,136262389,-569299685143044789,1361358737.285785,16360,-3304,2172,nan,0.000000
2,5,13,0,13021876,136262389,-569299685143042168,1361358737.285785,20016,-2360,816,nan,0.000000
2,5,13,0,13021876,136262389,-569299685143039547,1361358737.285785,12280,3484,-2228,nan,0.000000
2,5,13,0,13021876,136262389,-569299685143036926,1361358737.285785,18856,-4660,328,nan,0.000000
2,5,13,0,13021876,136262389,-569299685143034305,1361358737.285785,14692,-2772,220,nan,0.000000
2,5,14,0,13021876,136262421,-569299685143031684,1361358739.763877,14032,-1692,1884,nan,0.000000
2,5,14,0,13021876,136262421,-569299685143029063,1361358739.763877,15448,-2388,2984,nan,0.000000
2,5,14,0,13021876,136262421,-569299685143026442,1361358739.763877,15640,-3592,3592,nan,0.000000
2,5,14,0,13021876,136262421,-569299685143023821,1361358739.763877,14340,-2360,4164,nan,0.000000
2,5,14,0,13021876,136262421,-569299685143021200,1361358739.763877,16276,-976,5692,nan,0.000000
1,5,15,0,13103252,136343609,-6337781876551558137,1361358739.764786,12188,40,172,nan,0.000000
1,5,15,0,13103252,136343609,-6337781876551555516,1361358739.764786,17372,404,148,nan,0.000000
2,5,0,0,13103252,136343641,-6337781876551552895,1361358739.765718,15484,-452,984,nan,0.000000
2,5,0,0,13103252,136343641,-6337781876551550274,1361358739.765718,15516,-1924,-124,nan,0.000000
2,5,0,0,13103252,136343641,-6337781876551547653,1361358739.765718,16020,-2772,1556,nan,0.000000
2,5,0,0,13103252,136343641,-6337781876551545032,1361358739.765718,14768,-3408,1496,nan,0.000000
2,5,0,0,13103252,136343641,-6337781876551542411,1361358739.765718,14780,-4000,3100,nan,0.000000
2,5,1,0,13103252,136343673,-6337781876551539790,1361358739.766739,15432,-4476,2292,nan,0.000000
2,5,1,0,13103252,136343673,-6337781876551537169,1361358739.766739,19952,-3044,2392,nan,0.000000
2,5,1,0,13103252,136343673,-6337781876551534548,1361358739.766739,13348,2180,-1920,nan,0.000000
2,5,1,0,13103252,136343673,-6337781876551531927,1361358739.766739,17852,-3528,2580,nan,0.000000
2,5,1,0,13103252,136343673,-6337781876551529306,1361358739.766739,15700,-1464,740,nan,0.000000
2,5,2,0,13103252,136343705,-6337781876551526685,1361358739.769221,13492,-2656,2208,nan,0.000000
2,5,2,0,13103252,136343705,-6337781876551524064,1361358739.769221,15564,-2044,2836,nan,0.000000
2,5,2,0,13103252,136343705,-6337781876551521443,1361358739.769221,13744,-2564,3452,nan,0.000000
2,5,2,0,13103252,136343705,-6337781876551518822,1361358739.769221,14156,-2824,3608,nan,0.000000
2,5,2,0,13103252,136343705,-6337781876551516201,1361358739.769221,18060,-876,4000,nan,0.000000
2,5,3,0,13103252,136343737,-6337781876551513580,1361358739.771652,22236,-3932,1044,nan,0.000000
2,5,3,0,13103252,136343737,-6337781876551510959,1361358739.771652,13428,1508,1572,nan,0.000000
2,5,3,0,13103252,136343737,-6337781876551508338,1361358739.771652,16324,140,-1604,nan,0.000000
2,5,3,0,13103252,136343737,-6337781876551505717,1361358739.771652,15812,628,1216,nan,0.000000
2,5,3,0,13103252,136343737,-6337781876551503096,1361358739.771652,14372,-2716,-52,nan,0.000000
2,5,4,0,13103252,136343769,-6337781876551500475,1361358739.774705,15488,-2456,-156,nan,0.000000
2,5,4,0,13103252,136343769,-6337781876551497854,1361358739.774705,15172,-2460,644,nan,0.000000
2,5,4,0,13103252,136343769,-6337781876551495233,1361358739.774705,15508,-3228,1540,nan,0.000000
2,5,4,0,13103252,136343769,-6337781876551492612,1361358739.774705,16348,-5856,924,nan,0.000000
2,5,4,0,13103252,136343769,-6337781876551489991,1361358739.774705,18804,-2712,1288,nan,0.000000
2,5,5,0,13103252,136343801,-6337781876551487370,1361358742.246007,16188,-2408,-560,nan,0.000000
2,5,5,0,13103252,136343801,-6337781876551484749,1361358742.246007,14944,2176,-1024,nan,0.000000
2,5,5,0,13103252,136343801,-6337781876551482128,1361358742.246007,17372,-4132,288,nan,0.000000
2,5,5,0,13103252,136343801,-6337781876551479507,1361358742.246007,14248,-2048,544,nan,0.000000
2,5,5,0,13103252,136343801,-6337781876551476886,1361358742.246007,14528,-2120,2380,nan,0.000000
1,5,6,0,13184627,136424989,71072467593646333,1361358742.247741,14504,-2708,3380,nan,0.000000
1,5,6,0,13184627,136424989,71072467593648954,1361358742.247741,15212,-1264,3204,nan,0.000000
2,5,7,0,13184627,136425021,71072467593651575,1361358742.248335,19060,-3992,5768,nan,0.000000
2,5,7,0,13184627,136425021,71072467593654196,1361358742.248335,21964,928,-784,nan,0.000000
2,5,7,0,13184627,136425021,71072467593656817,1361358742.248335,10032,600,1944,nan,0.000000
2,5,7,0,13184627,136425021,71072467593659438,1361358742.248335,18708,928,-1204,nan,0.000000
2,5,7,0,13184627,136425021,71072467593662059,1361358742.248335,14768,-2404,300,nan,0.000000
2,5,8,0,13184627,136425053,71072467593664680,1361358742.249799,14108,-1128,-612,nan,0.000000
2,5,8,0,13184627,136425053,71072467593667301,1361358742.249799,15284,-3212,72,nan,0.000000
2,5,8,0,13184627,136425053,71072467593669922,1361358742.249799,15884,-2692,1272,nan,0.000000
2,5,8,0,13184627,136425053,71072467593672543,1361358742.249799,15380,-5212,2112,nan,0.000000
2,5,8,0,13184627,136425053,71072467593675164,1361358742.249799,16656,-5352,2892,nan,0.000000
2,5,9,0,13184627,136425085,71072467593677785,1361358742.250550,19120,-3364,188,nan,0.000000
2,5,9,0,13184627,136425085,71072467593680406,1361358742.250550,16756,3580,-2792,nan,0.000000
2,5,9,0,13184627,136425085,71072467593683027,1361358742.250550,15748,-4164,-356,nan,0.000000
2,5,9,0,13184627,136425085,71072467593685648,1361358742.250550,14044,-484,140,nan,0.000000
2,5,9,0,13184627,136425085,71072467593688269,1361358742.250550,14596,-1508,1224,nan,0.000000
2,5,10,0,13184627,136425117,71072467593690890,1361358742.251694,14956,-3448,2232,nan,0.000000
2,5,10,0,13184627,136425117,71072467593693511,1361358742.251694,14428,-3856,2604,nan,0.000000
2,5,10,0,13184627,136425117,71072467593696132,1361358742.251694,15584,-2444,4284,nan,0.000000
2,5,10,0,13184627,136425117,71072467593698753,1361358742.251694,16756,-852,3676,nan,0.000000
2,5,10,0,13184627,136425117,71072467593701374,1361358742.251694,20692,-5524,3280,nan,0.000000
2,5,11,0,13184627,136425149,71072467593703995,1361358742.252756,14532,600,-752,nan,0.000000
2,5,11,0,13184627,136425149,71072467593706616,1361358742.252756,15860,836,-1244,nan,0.000000
2,5,11,0,13184627,136425149,71072467593709237,1361358742.252756,15908,1312,1860,nan,0.000000
2,5,11,0,13184627,136425149,71072467593711858,1361358742.252756,14468,-4068,368,nan,0.000000
2,5,11,0,13184627,136425149,71072467593714479,1361358742.252756,14836,-2936,104,nan,0.000000
2,5,12,0,13184627,136425181,71072467593717100,1361358744.737803,15800,-3056,612,nan,0.000000
2,5,12,0,13184627,136425181,71072467593719721,1361358744.737803,15688,-3932,2380,nan,0.000000
2,5,12,0,13184627,136425181,71072467593722342,1361358744.737803,15012,-6116,1120,nan,0.000000
2,5,12,0,13184627,136425181,71072467593724963,1361358744.737803,18164,-2528,1980,nan,0.000000
2,5,12,0,13184627,136425181,71072467593727584,1361358744.737803,18980,-972,-2072,nan,0.000000
1,5,13,0,13266003,136506599,5479091773584008194,1361358744.738940,15916,-2824,-68,nan,0.000000
1,5,13,0,13266003,136506599,5479091773584010815,1361358744.738940,14912,-1684,1584,nan,0.000000
2,5,14,0,13266003,136506631,5479091773584013436,1361358744.739574,13940,-2412,1768,nan,0.000000
2,5,14,0,13266003,136506631,5479091773584016057,1361358744.739574,14856,-2704,2720,nan,0.000000
2,5,14,0,13266003,136506631,5479091773584018678,1361358744.739574,14216,-3668,3484,nan,0.000000
2,5,14,0,13266003,136506631,5479091773584021299,1361358744.739574,17444,532,2884,nan,0.000000
2,5,14,0,13266003,136506631,5479091773584023920,1361358744.739574,21164,-5776,3876,nan,0.000000
2,5,15,0,13266003,136506663,5479091773584026541,1361358744.740393,16672,1252,-1848,nan,0.000000
2,5,15,0,13266003,136506663,5479091773584029162,1361358744.740393,13900,444,-652,nan,0.000000
2,5,15,0,13266003,136506663,5479091773584031783,1361358744.740393,16316,3076,-344,nan,0.000000
2,5,15,0,13266003,136506663,5479091773584034404,1361358744.740393,15508,-5512,-220,nan,0.000000
2,5,15,0,13266003,136506663,5479091773584037025,1361358744.740393,15616,-1248,-300,nan,0.000000
2,5,0,0,13266003,136506694,5479091773584039646,1361358744.741553,14956,-2832,704,nan,0.000000
2,5,0,0,13266003,136506694,5479091773584042267,1361358744.741553,15216,-2884,1900,nan,0.000000
2,5,0,0,13266003,136506694,5479091773584044888,1361358744.741553,16100,-4888,2056,nan,0.000000
2,5,0,0,13266003,136506694,5479091773584047509,1361358744.741553,16828,-3380,2512,nan,0.000000
2,5,0,0,13266003,136506694,5479091773584050130,1361358744.741553,20072,-2132,380,nan,0.000000
2,5,1,0,13266003,136506727,5479091773584052751,1361358744.742666,12964,2512,-2824,nan,0.000000
2,5,1,0,13266003,136506727,5479091773584055372,1361358744.742666,17516,-4128,704,nan,0.000000
2,5,1,0,13266003,136506727,5479091773584057993,1361358744.742666,15100,-1668,560,nan,0.000000
2,5,1,0,13266003,136506727,5479091773584060614,1361358744.742666,14612,-3404,2012,nan,0.000000
2,5,1,0,13266003,136506727,5479091773584063235,1361358744.742666,15208,-2040,2420,nan,0.000000
2,5,2,0,13266003,136506758,5479091773584065856,1361358744.743604,14564,-2700,3104,nan,0.000000
2,5,2,0,13266003,136506758,5479091773584068477,1361358744.743604,14784,-1440,3752,nan,0.000000
2,5,2,0,13266003,136506758,5479091773584071098,1361358744.743604,16480,-124,3840,nan,0.000000
2,5,2,0,13266003,136506758,5479091773584073719,1361358744.743604,22380,-3876,2032,nan,0.000000
2,5,2,0,13266003,136506758,5479091773584076340,1361358744.743604,11972,248,1180,nan,0.000000
2,5,3,0,13266003,136506791,5479091773584078961,1361358747.213900,16428,-532,-2120,nan,0.000000
2,5,3,0,13266003,136506791,5479091773584081582,1361358747.213900,17460,320,628,nan,0.000000
2,5,3,0,13266003,136506791,5479091773584084203,1361358747.213900,14504,-3412,648,nan,0.000000
2,5,3,0,13266003,136506791,5479091773584086824,1361358747.213900,15304,-2604,76,nan,0.000000
2,5,3,0,13266003,136506791,5479091773584089445,1361358747.213900,15192,-2748,448,nan,0.000000
1,5,4,0,13347378,136587747,8359314232269125879,1361358747.215611,15044,-3988,664,nan,0.000000
1,5,4,1,13347378,136587747,8359314232269128500,1361358747.215611,17120,-2496,3724,nan,0.000000
2,5,5,1,13347378,136587779,8359314232269131121,1361358747.216109,20432,-3604,156,nan,0.000000
2,5,5,1,13347378,136587779,8359314232269133742,1361358747.216109,11876,2112,-2456,nan,0.000000
2,5,5,1,13347378,136587779,8359314232269136363,1361358747.216109,18720,-2832,1556,nan,0.000000
2,5,5,1,13347378,136587779,8359314232269138984,1361358747.216109,14944,-2600,-664,nan,0.000000
2,5,5,1,13347378,136587779,8359314232269141605,1361358747.216109,14400,-2104,876,nan,0.000000
2,5,6,1,13347378,136587810,8359314232269144226,1361358747.217732,15580,-1512,756,nan,0.000000
2,5,6,1,13347378,136587810,8359314232269146847,1361358747.217732,15460,-1140,576,nan,0.000000
2,5,6,1,13347378,136587810,8359314232269149468,1361358747.217732,15972,-1752,1504,nan,0.000000
2,5,6,1,13347378,136587810,8359314232269152089,1361358747.217732,15972,-2680,1984,nan,0.000000
2,5,6,1,13347378,136587810,8359314232269154710,1361358747.217732,15564,-2484,2132,nan,0.000000
2,5,7,1,13347378,136587842,8359314232269157331,1361358747.218685,17524,-5316,2732,nan,0.000000
2,5,7,1,13347378,136587842,8359314232269159952,1361358747.218685,17964,-1376,-2504,nan,0.000000
2,5,7,1,13347378,136587842,8359314232269162573,1361358747.218685,11340,-2308,-248,nan,0.000000
2,5,7,1,13347378,136587842,8359314232269165194,1361358747.218685,18096,-668,-2460,nan,0.000000
2,5,7,1,13347378,136587842,8359314232269167815,1361358747.218685,16772,-3312,-436,nan,0.000000
2,5,8,1,13347378,136587874,8359314232269170436,1361358747.219440,15636,-2636,-1200,nan,0.000000
2,5,8,1,13347378,136587874,8359314232269173057,1361358747.219440,15788,-2548,-2412,nan,0.000000
2,5,8,1,13347378,136587874,8359314232269175678,1361358747.219440,16600,-2640,-3000,nan,0.000000
2,5,8,1,13347378,136587874,8359314232269178299,1361358747.219440,15624,-3500,-1816,nan,0.000000
2,5,8,1,13347378,136587874,8359314232269180920,1361358747.219440,14480,-4632,-1072,nan,0.000000
2,5,9,1,13347378,136587906,8359314232269183541,1361358747.220326,15300,-3720,-420,nan,0.000000
2,5,9,1,13347378,136587906,8359314232269186162,1361358747.220326,20436,-4520,-472,nan,0.000000
2,5,9,1,13347378,136587906,8359314232269188783,1361358747.220326,14400,-288,-3024,nan,0.000000
2,5,9,1,13347378,136587906,8359314232269191404,1361358747.220326,14912,64,712,nan,0.000000
2,5,9,1,13347378,136587906,8359314232269194025,1361358747.220326,17120,-852,-804,nan,0.000000
2,5,10,1,13347378,136587938,8359314232269196646,1361358749.697573,13912,-2264,1412,nan,0.000000
2,5,10,1,13347378,136587938,8359314232269199267,1361358749.697573,15180,-2136,1304,nan,0.000000
2,5,10,1,13347378,136587938,8359314232269201888,1361358749.697573,15996,-1796,1048,nan,0.000000
2,5,10,1,13347378,136587938,8359314232269204509,1361358749.697573,14804,-1588,2800,nan,0.000000
2,5,10,1,13347378,136587938,8359314232269207130,1361358749.697573,16352,-2864,2600,nan,0.000000
1,5,11,0,13428754,136669127,1730975411883181061,1361358749.698753,22584,-4808,-852,nan,0.000000
1,5,11,0,13428754,136669127,1730975411883183682,1361358749.698753,8884,-532,1668,nan,0.000000
2,5,12,0,13428754,136669159,1730975411883186303,1361358749.699473,17684,836,-3432,nan,0.000000
2,5,12,0,13428754,136669159,1730975411883188924,1361358749.699473,16876,-2788,440,nan,0.000000
2,5,12,0,13428754,136669159,1730975411883191545,1361358749.699473,16052,-1128,-80,nan,0.000000
2,5,12,0,13428754,136669159,1730975411883194166,1361358749.699473,14656,-3180,-64,nan,0.000000
2,5,12,0,13428754,136669159,1730975411883196787,1361358749.699473,14468,-2192,196,nan,0.000000
2,5,13,0,13428754,136669191,1730975411883199408,1361358749.700009,14640,-3252,1272,nan,0.000000
2,5,13,0,13428754,136669191,1730975411883202029,1361358749.700009,15788,-4124,1896,nan,0.000000
2,5,13,0,13428754,136669191,1730975411883204650,1361358749.700009,19140,-3840,2124,nan,0.000000
2,5,13,0,13428754,136669191,1730975411883207271,1361358749.700009,19064,-1952,-1828,nan,0.000000
2,5,13,0,13428754,136669191,1730975411883209892,1361358749.700009,13580,1384,-1976,nan,0.000000
2,5,14,0,13428754,136669223,1730975411883212513,1361358749.701584,17304,-3232,692,nan,0.000000
2,5,14,0,13428754,136669223,1730975411883215134,1361358749.701584,14712,-1896,876,nan,0.000000
2,5,14,0,13428754,136669223,1730975411883217755,1361358749.701584,13940,-2696,1660,nan,0.000000
2,5,14,0,13428754,136669223,1730975411883220376,1361358749.701584,15080,-1332,1952,nan,0.000000
2,5,14,0,13428754,136669223,1730975411883222997,1361358749.701584,14568,-2924,3100,nan,0.000000
2,5,15,0,13428754,136669255,1730975411883225618,1361358749.702075,16264,-1480,3316,nan,0.000000
2,5,15,0,13428754,136669255,1730975411883228239,1361358749.702075,16996,-5612,5392,nan,0.000000
2,5,15,0,13428754,136669255,1730975411883230860,1361358749.702075,22752,-104,-1132,nan,0.000000
2,5,15,0,13428754,136669255,1730975411883233481,1361358749.702075,9640,-1508,2784,nan,0.000000
2,5,15,0,13428754,136669255,1730975411883236102,1361358749.702075,18452,2472,-3244,nan,0.000000
2,5,0,0,13428754,136669287,1730975411883238723,1361358749.703470,15780,-3088,2132,nan,0.000000
2,5,0,0,13428754,136669287,1730975411883241344,1361358749.703470,14428,-1488,108,nan,0.000000
2,5,0,0,13428754,136669287,1730975411883243965,1361358749.703470,14764,-3452,608,nan,0.000000
2,5,0,0,13428754,136669287,1730975411883246586,1361358749.703470,14916,-3016,48,nan,0.000000
2,5,0,0,13428754,136669287,1730975411883249207,1361358749.703470,16424,-3260,1848,nan,0.000000
1,5,2,0,13510128,136913263,-7492876048614985721,1361358757.149767,13916,-2264,1960,nan,0.000000
1,5,2,0,13510128,136913263,-7492876048614983100,1361358757.149767,14640,-2936,2400,nan,0.000000
2,5,3,0,13510128,136913295,-7492876048614980479,1361358757.150702,14848,-3556,3472,nan,0.000000
2,5,3,0,13510128,136913295,-7492876048614977858,1361358757.150702,17892,112,3264,nan,0.000000
2,5,3,0,13510128,136913295,-7492876048614975237,1361358757.150702,20520,-7900,4148,nan,0.000000
2,5,3,0,13510128,136913295,-7492876048614972616,1361358757.150702,15392,1708,-1088,nan,0.000000
2,5,3,0,13510128,136913295,-7492876048614969995,1361358757.150702,13460,-668,-400,nan,0.000000
2,5,4,0,13510128,136913327,-7492876048614967374,1361358757.151607,17680,2308,152,nan,0.000000
2,5,4,0,13510128,136913327,-7492876048614964753,1361358757.151607,14520,-5796,584,nan,0.000000
2,5,4,0,13510128,136913327,-7492876048614962132,1361358757.151607,14704,-1912,28,nan,0.000000
2,5,4,0,13510128,136913327,-7492876048614959511,1361358757.151607,14604,-3656,972,nan,0.000000
2,5,4,0,13510128,136913327,-7492876048614956890,1361358757.151607,15568,-3136,1520,nan,0.000000
2,5,5,0,13510128,136913359,-7492876048614954269,1361358757.152658,16272,-6320,2088,nan,0.000000
2,5,5,0,13510128,136913359,-7492876048614951648,1361358757.152658,20552,-3188,2224,nan,0.000000
2,5,5,0,13510128,136913359,-7492876048614949027,1361358757.152658,14784,-408,-2496,nan,0.000000
2,5,5,0,13510128,136913359,-7492876048614946406,1361358757.152658,15600,408,-704,nan,0.000000
2,5,5,0,13510128,136913359,-7492876048614943785,1361358757.152658,17288,-3168,32,nan,0.000000
2,5,6,0,13510128,136913391,-7492876048614941164,1361358757.153515,13572,-3644,208,nan,0.000000
2,5,6,0,13510128,136913391,-7492876048614938543,1361358757.153515,13872,-2576,2972,nan,0.000000
2,5,6,0,13510128,136913391,-7492876048614935922,1361358757.153515,14732,-3944,2936,nan,0.000000
2,5,6,0,13510128,136913391,-7492876048614933301,1361358757.153515,14724,-3636,3608,nan,0.000000
2,5,6,0,13510128,136913391,-7492876048614930680,1361358757.153515,18648,1608,3468,nan,0.000000
2,5,7,0,13510128,136913423,-7492876048614928059,1361358757.154227,21804,-6924,3468,nan,0.000000
2,5,7,0,13510128,136913423,-7492876048614925438,1361358757.154227,13180,1516,-36,nan,0.000000
2,5,7,0,13510128,136913423,-7492876048614922817,1361358757.154227,13548,-1188,-668,nan,0.000000
2,5,7,0,13510128,136913423,-7492876048614920196,1361358757.154227,18348,1100,344,nan,0.000000
2,5,7,0,13510128,136913423,-7492876048614917575,1361358757.154227,14068,-5140,1048,nan,0.000000
2,5,8,0,13510128,136913455,-7492876048614914954,1361358757.155304,14616,-2108,232,nan,0.000000
2,5,8,0,13510128,136913455,-7492876048614912333,1361358757.155304,14724,-3416,1240,nan,0.000000
2,5,8,0,13510128,136913455,-7492876048614909712,1361358757.155304,15584,-2976,1764,nan,0.000000
2,5,8,0,13510128,136913455,-7492876048614907091,1361358757.155304,16236,-6776,2284,nan,0.000000
2,5,8,0,13510128,136913455,-7492876048614904470,1361358757.155304,20748,-3812,2004,nan,0.000000
1,5,9,0,13591503,136913487,-2880992102056335360,1361358757.156233,14744,1468,-236,nan,0.000000
1,5,9,15,13591503,136913487,-2880992102056332739,1361358757.156233,16728,-4432,512,nan,0.000000
2,5,10,15,13591503,136913519,-2880992102056330118,1361358757.157299,14428,-3132,156,nan,0.000000
2,5,10,15,13591503,136913519,-2880992102056327497,1361358757.157299,14172,-1788,2216,nan,0.000000
2,5,10,15,13591503,136913519,-2880992102056324876,1361358757.157299,14484,-2512,2812,nan,0.000000
2,5,10,15,13591503,136913519,-2880992102056322255,1361358757.157299,13724,-4256,3060,nan,0.000000
2,5,10,15,13591503,136913519,-2880992102056319634,1361358757.157299,16748,-380,2236,nan,0.000000
2,5,11,15,13591503,136913551,-2880992102056317013,1361358757.158269,18500,-7960,5940,nan,0.000000
2,5,11,15,13591503,136913551,-2880992102056314392,1361358757.158269,20796,1184,-1368,nan,0.000000
2,5,11,15,13591503,136913551,-2880992102056311771,1361358757.158269,10136,-2060,1660,nan,0.000000
2,5,11,15,13591503,136913551,-2880992102056309150,1361358757.158269,19784,1484,-3968,nan,0.000000
2,5,11,15,13591503,136913551,-2880992102056306529,1361358757.158269,14012,-5208,1984,nan,0.000000
2,5,12,15,13591503,136913583,-2880992102056303908,1361358757.159541,14156,-1340,-2192,nan,0.000000
2,5,12,15,13591503,136913583,-2880992102056301287,1361358757.159541,15940,-3944,-400,nan,0.000000
2,5,12,15,13591503,136913583,-2880992102056298666,1361358757.159541,15520,-3388,-616,nan,0.000000
2,5,12,15,13591503,136913583,-2880992102056296045,1361358757.159541,15192,-4380,400,nan,0.000000
2,5,12,15,13591503,136913583,-2880992102056293424,1361358757.159541,16228,-4768,1164,nan,0.000000
2,5,13,15,13591503,136913615,-2880992102056290803,1361358757.160048,20188,-4788,-460,nan,0.000000
2,5,13,15,13591503,136913615,-2880992102056288182,1361358757.160048,14432,3052,-2812,nan,0.000000
2,5,13,15,13591503,136913615,-2880992102056285561,1361358757.160048,16348,-3424,1152,nan,0.000000
2,5,13,15,13591503,136913615,-2880992102056282940,1361358757.160048,15256,-804,-920,nan,0.000000
2,5,13,15,13591503,136913615,-2880992102056280319,1361358757.160048,14560,-2636,2076,nan,0.000000
2,5,14,15,13591503,136913646,-2880992102056277698,1361358757.161510,14656,-2416,1940,nan,0.000000
2,5,14,15,13591503,136913646,-2880992102056275077,1361358757.161510,14612,-2220,1936,nan,0.000000
2,5,14,15,13591503,136913646,-2880992102056272456,1361358757.161510,16092,-2524,2920,nan,0.000000
2,5,14,15,13591503,136913646,-2880992102056269835,1361358757.161510,17056,-1696,3864,nan,0.000000
2,5,14,15,13591503,136913646,-2880992102056267214,1361358757.161510,21384,-6924,1996,nan,0.000000
2,5,15,15,13591503,136913679,-2880992102056264593,1361358757.162049,12368,160,-1436,nan,0.000000
2,5,15,15,13591503,136913679,-2880992102056261972,1361358757.162049,16264,1516,-2260,nan,0.000000
2,5,15,15,13591503,136913679,-2880992102056259351,1361358757.162049,16372,-200,504,nan,0.000000
2,5,15,15,13591503,136913679,-2880992102056256730,1361358757.162049,14920,-3712,-1532,nan,0.000000
2,5,15,15,13591503,136913679,-2880992102056254109,1361358757.162049,15736,-2464,-24,nan,0.000000
1,5,0,0,13672878,136913710,3240317965421208826,1361358757.163335,14400,-3524,1132,nan,0.000000
1,5,0,0,13672878,136913710,3240317965421211447,1361358757.163335,16476,-5768,1448,nan,0.000000
2,5,1,0,13672878,136913743,3240317965421214068,1361358757.163689,22160,-3740,1144,nan,0.000000
2,5,1,0,13672878,136913743,3240317965421216689,1361358757.163689,13128,1356,-4016,nan,0.000000
2,5,1,0,13672878,136913743,3240317965421219310,1361358757.163689,16788,-2712,908,nan,0.000000
2,5,1,0,13672878,136913743,3240317965421221931,1361358757.163689,15976,-2492,-344,nan,0.000000
2,5,1,0,13672878,136913743,3240317965421224552,1361358757.163689,14168,-1888,1188,nan,0.000000
2,5,2,0,13672878,136913774,3240317965421227173,1361358757.167152,14560,-1684,2472,nan,0.000000
2,5,2,0,13672878,136913774,3240317965421229794,1361358757.167152,14220,-2972,2732,nan,0.000000
2,5,2,0,13672878,136913774,3240317965421232415,1361358757.167152,14552,-3040,2952,nan,0.000000
2,5,2,0,13672878,136913774,3240317965421235036,1361358757.167152,17604,-1148,4008,nan,0.000000
2,5,2,0,13672878,136913774,3240317965421237657,1361358757.167152,19788,-6572,2448,nan,0.000000
2,5,3,0,13672878,136913807,3240317965421240278,1361358757.170979,16504,1348,-2504,nan,0.000000
2,5,3,0,13672878,136913807,3240317965421242899,1361358757.170979,15376,568,-220,nan,0.000000
2,5,3,0,13672878,136913807,3240317965421245520,1361358757.170979,16476,1960,496,nan,0.000000
2,5,3,0,13672878,136913807,3240317965421248141,1361358757.170979,13300,-5864,-112,nan,0.000000
2,5,3,0,13672878,136913807,3240317965421250762,1361358757.170979,14904,-2656,-808,nan,0.000000
2,5,4,0,13672878,136913838,3240317965421253383,1361358757.174137,15744,-3080,420,nan,0.000000
2,5,4,0,13672878,136913838,3240317965421256004,1361358757.174137,15440,-3352,1556,nan,0.000000
2,5,4,0,13672878,136913838,3240317965421258625,1361358757.174137,15400,-5184,1752,nan,0.000000
2,5,4,0,13672878,136913838,3240317965421261246,1361358757.174137,18172,-5276,3172,nan,0.000000
2,5,4,0,13672878,136913838,3240317965421263867,1361358757.174137,18496,-2260,-1428,nan,0.000000
2,5,5,0,13672878,136913871,3240317965421266488,1361358757.178937,13756,2100,-1920,nan,0.000000
2,5,5,0,13672878,136913871,3240317965421269109,1361358757.178937,16620,-4556,140,nan,0.000000
2,5,5,0,13672878,136913871,3240317965421271730,1361358757.178937,15360,-3200,-500,nan,0.000000
2,5,5,0,13672878,136913871,3240317965421274351,1361358757.178937,13688,-3016,1688,nan,0.000000
2,5,5,0,13672878,136913871,3240317965421276972,1361358757.178937,14020,-2532,1476,nan,0.000000
1,5,7,0,13754252,137238766,1442934167368244227,1361358767.083474,14664,-4224,1568,nan,0.000000
1,5,7,0,13754252,137238766,1442934167368246848,1361358767.083474,15084,-2396,-1872,nan,0.000000
2,5,8,0,13754252,137238798,1442934167368249469,1361358767.084297,15360,-2740,-224,nan,0.000000
2,5,8,0,13754252,137238798,1442934167368252090,1361358767.084297,14620,-3388,12,nan,0.000000
2,5,8,0,13754252,137238798,1442934167368254711,1361358767.084297,15344,-4364,372,nan,0.000000
2,5,8,0,13754252,137238798,1442934167368257332,1361358767.084297,16848,-5808,848,nan,0.000000
2,5,8,0,13754252,137238798,1442934167368259953,1361358767.084297,19652,-4836,148,nan,0.000000
2,5,9,0,13754252,137238829,1442934167368262574,1361358767.085177,14872,256,-3280,nan,0.000000
2,5,9,0,13754252,137238829,1442934167368265195,1361358767.085177,16048,-732,-40,nan,0.000000
2,5,9,0,13754252,137238829,1442934167368267816,1361358767.085177,15516,-3612,-1020,nan,0.000000
2,5,9,0,13754252,137238829,1442934167368270437,1361358767.085177,13948,-2712,1220,nan,0.000000
2,5,9,0,13754252,137238829,1442934167368273058,1361358767.085177,14124,-2660,2172,nan,0.000000
2,5,10,0,13754252,137238862,1442934167368275679,1361358767.086182,14860,-3384,2708,nan,0.000000
2,5,10,0,13754252,137238862,1442934167368278300,1361358767.086182,15620,-3596,3012,nan,0.000000
2,5,10,0,13754252,137238862,1442934167368280921,1361358767.086182,18072,776,3520,nan,0.000000
2,5,10,0,13754252,137238862,1442934167368283542,1361358767.086182,20820,-6900,2624,nan,0.000000
2,5,10,0,13754252,137238862,1442934167368286163,1361358767.086182,13860,1052,-928,nan,0.000000
2,5,11,0,13754252,137238893,1442934167368288784,1361358767.087084,13868,-296,-1592,nan,0.000000
2,5,11,0,13754252,137238893,1442934167368291405,1361358767.087084,18072,-592,516,nan,0.000000
2,5,11,0,13754252,137238893,1442934167368294026,1361358767.087084,14032,-4448,-732,nan,0.000000
2,5,11,0,13754252,137238893,1442934167368296647,1361358767.087084,15148,-2568,8,nan,0.000000
2,5,11,0,13754252,137238893,1442934167368299268,1361358767.087084,14608,-3260,1080,nan,0.000000
2,5,12,0,13754252,137238926,1442934167368301889,1361358767.088137,15296,-2876,2460,nan,0.000000
2,5,12,0,13754252,137238926,1442934167368304510,1361358767.088137,15784,-7308,3200,nan,0.000000
2,5,12,0,13754252,137238926,1442934167368307131,1361358767.088137,19236,-5596,1512,nan,0.000000
2,5,12,0,13754252,137238926,1442934167368309752,1361358767.088137,16100,896,-2016,nan,0.000000
2,5,12,0,13754252,137238926,1442934167368312373,1361358767.088137,16152,-1696,428,nan,0.000000
2,5,13,0,13754252,137238957,1442934167368314994,1361358767.089129,14860,-4356,-328,nan,0.000000
2,5,13,0,13754252,137238957,1442934167368317615,1361358767.089129,15392,-2192,1276,nan,0.000000
2,5,13,0,13754252,137238957,1442934167368320236,1361358767.089129,12756,-2988,2504,nan,0.000000
2,5,13,0,13754252,137238957,1442934167368322857,1361358767.089129,14620,-3308,3612,nan,0.000000
2,5,13,0,13754252,137238957,1442934167368325478,1361358767.089129,15696,-3784,3440,nan,0.000000
1,5,14,0,13835624,137238990,-286980269544785666,1361358767.089937,21456,-4748,2356,nan,0.000000
1,5,14,15,13835624,137238990,-286980269544783045,1361358767.089937,12496,-1340,-200,nan,0.000000
2,5,15,15,13835624,137239021,-286980269544780424,1361358767.091473,15588,648,-2184,nan,0.000000
2,5,15,15,13835624,137239021,-286980269544777803,1361358767.091473,16896,-36,184,nan,0.000000
2,5,15,15,13835624,137239021,-286980269544775182,1361358767.091473,14240,-4112,-560,nan,0.000000
2,5,15,15,13835624,137239021,-286980269544772561,1361358767.091473,13856,-2888,252,nan,0.000000
2,5,15,15,13835624,137239021,-286980269544769940,1361358767.091473,14284,-3192,1000,nan,0.000000
2,5,0,15,13835624,137239054,-286980269544767319,1361358767.094156,16344,-4488,2008,nan,0.000000
2,5,0,15,13835624,137239054,-286980269544764698,1361358767.094156,18012,-5020,2256,nan,0.000000
2,5,0,15,13835624,137239054,-286980269544762077,1361358767.094156,19972,-3832,-1224,nan,0.000000
2,5,0,15,13835624,137239054,-286980269544759456,1361358767.094156,15384,3468,-1160,nan,0.000000
2,5,0,15,13835624,137239054,-286980269544756835,1361358767.094156,15156,-5000,108,nan,0.000000
2,5,1,15,13835624,137239085,-286980269544754214,1361358767.098821,14176,-740,-224,nan,0.000000
2,5,1,15,13835624,137239085,-286980269544751593,1361358767.098821,14740,-2288,2196,nan,0.000000
2,5,1,15,13835624,137239085,-286980269544748972,1361358767.098821,14468,-3416,2604,nan,0.000000
2,5,1,15,13835624,137239085,-286980269544746351,1361358767.098821,15468,-3124,4028,nan,0.000000
2,5,1,15,13835624,137239085,-286980269544743730,1361358767.098821,15700,-404,3132,nan,0.000000
2,5,2,15,13835624,137239118,-286980269544741109,1361358767.101329,18496,-5848,4740,nan,0.000000
2,5,2,15,13835624,137239118,-286980269544738488,1361358767.101329,19088,-104,-2648,nan,0.000000
2,5,2,15,13835624,137239118,-286980269544735867,1361358767.101329,12828,-524,256,nan,0.000000
2,5,2,15,13835624,137239118,-286980269544733246,1361358767.101329,18256,3324,-2380,nan,0.000000
2,5,2,15,13835624,137239118,-286980269544730625,1361358767.101329,13484,-8020,-16,nan,0.000000
2,5,3,15,13835624,137239149,-286980269544728004,1361358767.108217,14832,-64,-232,nan,0.000000
2,5,3,15,13835624,137239149,-286980269544725383,1361358767.108217,15064,-3852,664,nan,0.000000
2,5,3,15,13835624,137239149,-286980269544722762,1361358767.108217,15868,-3652,1520,nan,0.000000
2,5,3,15,13835624,137239149,-286980269544720141,1361358767.108217,16092,-5676,1112,nan,0.000000
2,5,3,15,13835624,137239149,-286980269544717520,1361358767.108217,18412,-4804,2528,nan,0.000000
2,5,4,15,13835624,137239182,-286980269544714899,1361358767.111161,17100,-268,-3088,nan,0.000000
2,5,4,15,13835624,137239182,-286980269544712278,1361358767.111161,14432,652,-748,nan,0.000000
2,5,4,15,13835624,137239182,-286980269544709657,1361358767.111161,16832,-3872,-468,nan,0.000000
2,5,4,15,13835624,137239182,-286980269544707036,1361358767.111161,14680,-2148,760,nan,0.000000
2,5,4,15,13835624,137239182,-286980269544704415,1361358767.111161,13828,-2360,1916,nan,0.000000
1,5,5,0,13916996,137239213,1512518991698522355,1361358767.115068,15596,-2704,2676,nan,0.000000
1,5,5,0,13916996,137239213,1512518991698524976,1361358767.115068,16396,-2308,2728,nan,0.000000
2,5,6,0,13916996,137239246,1512518991698527597,1361358767.118013,17796,-4912,4680,nan,0.000000
2,5,6,0,13916996,137239246,1512518991698530218,1361358767.118013,20752,-648,-2208,nan,0.000000
2,5,6,0,13916996,137239246,1512518991698532839,1361358767.118013,8444,-2564,340,nan,0.000000
2,5,6,0,13916996,137239246,1512518991698535460,1361358767.118013,19936,1844,-4056,nan,0.000000
2,5,6,0,13916996,137239246,1512518991698538081,1361358767.118013,14952,-5404,1280,nan,0.000000
2,5,7,0,13916996,137239277,1512518991698540702,1361358767.122730,15504,-1080,-744,nan,0.000000
2,5,7,0,13916996,137239277,1512518991698543323,1361358767.122730,15632,-3384,368,nan,0.000000
2,5,7,0,13916996,137239277,1512518991698545944,1361358767.122730,14776,-2912,400,nan,0.000000
2,5,7,0,13916996,137239277,1512518991698548565,1361358767.122730,14968,-3844,1684,nan,0.000000
2,5,7,0,13916996,137239277,1512518991698551186,1361358767.122730,15456,-5328,1412,nan,0.000000
2,5,8,0,13916996,137239310,1512518991698553807,1361358767.125302,19992,-5164,1600,nan,0.000000
2,5,8,0,13916996,137239310,1512518991698556428,1361358767.125302,16212,104,-1964,nan,0.000000
2,5,8,0,13916996,137239310,1512518991698559049,1361358767.125302,14256,308,-652,nan,0.000000
2,5,8,0,13916996,137239310,1512518991698561670,1361358767.125302,17028,-3140,224,nan,0.000000
2,5,8,0,13916996,137239310,1512518991698564291,1361358767.125302,15224,-2524,252,nan,0.000000
2,5,9,0,13916996,137239341,1512518991698566912,1361358767.127906,14572,-2208,1396,nan,0.000000
2,5,9,0,13916996,137239341,1512518991698569533,1361358767.127906,14304,-2140,1876,nan,0.000000
2,5,9,0,13916996,137239341,1512518991698572154,1361358767.127906,15276,-3332,2288,nan,0.000000
2,5,9,0,13916996,137239341,1512518991698574775,1361358767.127906,16068,-3256,2644,nan,0.000000
2,5,9,0,13916996,137239341,1512518991698577396,1361358767.127906,16512,-3816,5580,nan,0.000000
2,5,10,0,13916996,137239373,1512518991698580017,1361358767.130238,22084,-3388,-2900,nan,0.000000
2,5,10,0,13916996,137239373,1512518991698582638,1361358767.130238,10456,-2160,64,nan,0.000000
2,5,10,0,13916996,137239373,1512518991698585259,1361358767.130238,18520,2984,-3588,nan,0.000000
2,5,10,0,13916996,137239373,1512518991698587880,1361358767.130238,15088,-5380,-144,nan,0.000000
2,5,10,0,13916996,137239373,1512518991698590501,1361358767.130238,13616,-1384,-1072,nan,0.000000
2,5,11,0,13916996,137239405,1512518991698593122,1361358767.137868,15636,-4424,-280,nan,0.000000
2,5,11,0,13916996,137239405,1512518991698595743,1361358767.137868,16596,-2968,-1108,nan,0.000000
2,5,11,0,13916996,137239405,1512518991698598364,1361358767.137868,15608,-4416,-796,nan,0.000000
2,5,11,0,13916996,137239405,1512518991698600985,1361358767.137868,16216,-4744,120,nan,0.000000
2,5,11,0,13916996,137239405,1512518991698603606,1361358767.137868,18360,-4332,1360,nan,0.000000
1,5,12,0,13998367,137239437,-5982072279289239298,1361358767.140658,14656,2696,-160,nan,0.000000
1,5,12,0,13998367,137239437,-5982072279289236677,1361358767.140658,16876,-4152,-800,nan,0.000000
2,5,13,0,13998367,137239469,-5982072279289234056,1361358767.142708,15044,-804,292,nan,0.000000
2,5,13,0,13998367,137239469,-5982072279289231435,1361358767.142708,14496,-2324,1812,nan,0.000000
2,5,13,0,13998367,137239469,-5982072279289228814,1361358767.142708,14460,-1944,2512,nan,0.000000
2,5,13,0,13998367,137239469,-5982072279289226193,1361358767.142708,15792,-3400,2364,nan,0.000000
2,5,13,0,13998367,137239469,-5982072279289223572,1361358767.142708,16280,-1840,2392,nan,0.000000
2,5,14,0,13998367,137239501,-5982072279289220951,1361358767.148287,17584,-1580,5084,nan,0.000000
2,5,14,0,13998367,137239501,-5982072279289218330,1361358767.148287,21376,-5160,124,nan,0.000000
2,5,14,0,13998367,137239501,-5982072279289215709,1361358767.148287,9728,-808,1268,nan,0.000000
2,5,14,0,13998367,137239501,-5982072279289213088,1361358767.148287,17964,3556,-4012,nan,0.000000
2,5,14,0,13998367,137239501,-5982072279289210467,1361358767.148287,15688,-6324,156,nan,0.000000
2,5,15,0,13998367,137239533,-5982072279289207846,1361358767.151552,15672,-192,-520,nan,0.000000
2,5,15,0,13998367,137239533,-5982072279289205225,1361358767.151552,14164,-3380,332,nan,0.000000
2,5,15,0,13998367,137239533,-5982072279289202604,1361358767.151552,15312,-3040,388,nan,0.000000
2,5,15,0,13998367,137239533,-5982072279289199983,1361358767.151552,14992,-3636,976,nan,0.000000
2,5,15,0,13998367,137239533,-5982072279289197362,1361358767.151552,16572,-5984,1548,nan,0.000000
2,5,0,0,13998367,137239565,-5982072279289194741,1361358767.153781,19760,-5888,1232,nan,0.000000
2,5,0,0,13998367,137239565,-5982072279289192120,1361358767.153781,15100,104,-2844,nan,0.000000
2,5,0,0,13998367,137239565,-5982072279289189499,1361358767.153781,16696,2376,652,nan,0.000000
2,5,0,0,13998367,137239565,-5982072279289186878,1361358767.153781,15256,-4660,-1756,nan,0.000000
2,5,0,0,13998367,137239565,-5982072279289184257,1361358767.153781,14688,-2308,1164,nan,0.000000
2,5,1,0,13998367,137239597,-5982072279289181636,1361358767.160229,14320,-2476,2336,nan,0.000000
2,5,1,0,13998367,137239597,-5982072279289179015,1361358767.160229,14600,-2964,2952,nan,0.000000
2,5,1,0,13998367,137239597,-5982072279289176394,1361358767.160229,16184,-3332,4128,nan,0.000000
2,5,1,0,13998367,137239597,-5982072279289173773,1361358767.160229,16508,-1836,5560,nan,0.000000
2,5,1,0,13998367,137239597,-5982072279289171152,1361358767.160229,22244,-5072,1516,nan,0.000000
2,5,2,0,13998367,137239629,-5982072279289168531,1361358769.565396,12320,1212,360,nan,0.000000
2,5,2,0,13998367,137239629,-5982072279289165910,1361358769.565396,15736,448,-44,nan,0.000000
2,5,2,0,13998367,137239629,-5982072279289163289,1361358769.565396,15464,-1296,1024,nan,0.000000
2,5,2,0,13998367,137239629,-5982072279289160668,1361358769.565396,14976,-3396,476,nan,0.000000
2,5,2,0,13998367,137239629,-5982072279289158047,1361358769.565396,14644,-3724,1600,nan,0.000000
1,5,3,0,14079737,137320141,-3098546906062821375,1361358769.566542,15244,-6496,2020,nan,0.000000
1,5,3,0,14079737,137320141,-3098546906062818754,1361358769.566542,21880,-2168,588,nan,0.000000
2,5,4,0,14079737,137320172,-3098546906062816133,1361358769.567198,15900,1920,856,nan,0.000000
2,5,4,0,14079737,137320172,-3098546906062813512,1361358769.567198,14688,-2200,580,nan,0.000000
2,5,4,0,14079737,137320172,-3098546906062810891,1361358769.567198,15756,-1184,1816,nan,0.000000
2,5,4,0,14079737,137320172,-3098546906062808270,1361358769.567198,13152,-3900,1896,nan,0.000000
2,5,4,0,14079737,137320172,-3098546906062805649,1361358769.567198,14808,-2508,2468,nan,0.000000
2,5,5,0,14079737,137320204,-3098546906062803028,1361358769.568034,16048,-3140,4656,nan,0.000000
2,5,5,0,14079737,137320204,-3098546906062800407,1361358769.568034,15140,-2752,5512,nan,0.000000
2,5,5,0,14079737,137320204,-3098546906062797786,1361358769.568034,15024,-3336,5880,nan,0.000000
2,5,5,0,14079737,137320204,-3098546906062795165,1361358769.568034,21336,-84,-1116,nan,0.000000
2,5,5,0,14079737,137320204,-3098546906062792544,1361358769.568034,15148,-696,1312,nan,0.000000
2,5,6,0,14079737,137320236,-3098546906062789923,1361358769.568999,14140,144,1924,nan,0.000000
2,5,6,0,14079737,137320236,-3098546906062787302,1361358769.568999,16168,-2360,-4,nan,0.000000
2,5,6,0,14079737,137320236,-3098546906062784681,1361358769.568999,16032,-4712,1220,nan,0.000000
2,5,6,0,14079737,137320236,-3098546906062782060,1361358769.568999,14908,-4084,2232,nan,0.000000
2,5,6,0,14079737,137320236,-3098546906062779439,1361358769.568999,13828,-4024,2560,nan,0.000000
2,5,7,0,14079737,137320268,-3098546906062776818,1361358769.569950,14152,-5124,2516,nan,0.000000
2,5,7,0,14079737,137320268,-3098546906062774197,1361358769.569950,21260,-3476,1200,nan,0.000000
2,5,7,0,14079737,137320268,-3098546906062771576,1361358769.569950,17492,2404,-1684,nan,0.000000
2,5,7,0,14079737,137320268,-3098546906062768955,1361358769.569950,14856,-4632,788,nan,0.000000
2,5,7,0,14079737,137320268,-3098546906062766334,1361358769.569950,13656,-2316,60,nan,0.000000
2,5,8,0,14079737,137320300,-3098546906062763713,1361358769.571012,14868,-1600,1260,nan,0.000000
2,5,8,0,14079737,137320300,-3098546906062761092,1361358769.571012,15124,-2992,2524,nan,0.000000
2,5,8,0,14079737,137320300,-3098546906062758471,1361358769.571012,15768,-3184,3476,nan,0.000000
2,5,8,0,14079737,137320300,-3098546906062755850,1361358769.571012,16160,-3344,4716,nan,0.000000
2,5,8,0,14079737,137320300,-3098546906062753229,1361358769.571012,18652,-3124,4236,nan,0.000000
2,5,9,0,14079737,137320332,-3098546906062750608,1361358772.049366,14036,-1352,3064,nan,0.000000
2,5,9,0,14079737,137320332,-3098546906062747987,1361358772.049366,13876,-2980,-2264,nan,0.000000
2,5,9,0,14079737,137320332,-3098546906062745366,1361358772.049366,17752,-368,556,nan,0.000000
2,5,9,0,14079737,137320332,-3098546906062742745,1361358772.049366,15924,-3520,132,nan,0.000000
2,5,9,0,14079737,137320332,-3098546906062740124,1361358772.049366,15076,-3732,320,nan,0.000000
1,5,10,0,14161106,137401533,2951930284682442763,1361358772.052999,14288,-5164,2048,nan,0.000000
1,5,10,0,14161106,137401533,2951930284682445384,1361358772.052999,16444,-4580,1860,nan,0.000000
2,5,11,0,14161106,137401642,2951930284682448005,1361358772.053446,20532,-2852,644,nan,0.000000
2,5,11,0,14161106,137401642,2951930284682450626,1361358772.053446,17400,4204,-1504,nan,0.000000
2,5,11,0,14161106,137401642,2951930284682453247,1361358772.053446,15124,-4904,1204,nan,0.000000
2,5,11,0,14161106,137401642,2951930284682455868,1361358772.053446,14344,-460,1728,nan,0.000000
2,5,11,0,14161106,137401642,2951930284682458489,1361358772.053446,14928,-1724,1800,nan,0.000000
2,5,12,0,14161106,137401673,2951930284682461110,1361358772.055002,14840,-2212,2832,nan,0.000000
2,5,12,0,14161106,137401673,2951930284682463731,1361358772.055002,14728,-3008,3804,nan,0.000000
2,5,12,0,14161106,137401673,2951930284682466352,1361358772.055002,15976,-664,3456,nan,0.000000
2,5,12,0,14161106,137401673,2951930284682468973,1361358772.055002,16088,-3396,4492,nan,0.000000
2,5,12,0,14161106,137401673,2951930284682471594,1361358772.055002,22968,1208,676,nan,0.000000
2,5,13,0,14161106,137401706,2951930284682474215,1361358772.055948,10100,-1744,912,nan,0.000000
2,5,13,0,14161106,137401706,2951930284682476836,1361358772.055948,19224,1084,-916,nan,0.000000
2,5,13,0,14161106,137401706,2951930284682479457,1361358772.055948,15904,-2008,1996,nan,0.000000
2,5,13,0,14161106,137401706,2951930284682482078,1361358772.055948,15712,-1236,-312,nan,0.000000
2,5,13,0,14161106,137401706,2951930284682484699,1361358772.055948,14980,-3208,592,nan,0.000000
2,5,14,0,14161106,137401737,2951930284682487320,1361358772.057045,15356,-3436,240,nan,0.000000
2,5,14,0,14161106,137401737,2951930284682489941,1361358772.057045,14780,-4476,1532,nan,0.000000
2,5,14,0,14161106,137401737,2951930284682492562,1361358772.057045,14892,-4892,2464,nan,0.000000
2,5,14,0,14161106,137401737,2951930284682495183,1361358772.057045,15056,-4936,3256,nan,0.000000
2,5,14,0,14161106,137401737,2951930284682497804,1361358772.057045,18944,-3284,1724,nan,0.000000
2,5,15,0,14161106,137401770,2951930284682500425,1361358772.057552,15128,-496,40,nan,0.000000
2,5,15,0,14161106,137401770,2951930284682503046,1361358772.057552,15744,-348,-1204,nan,0.000000
2,5,15,0,14161106,137401770,2951930284682505667,1361358772.057552,17496,-3096,1944,nan,0.000000
2,5,15,0,14161106,137401770,2951930284682508288,1361358772.057552,15796,-3988,-108,nan,0.000000
2,5,15,0,14161106,137401770,2951930284682510909,1361358772.057552,14196,-1516,2120,nan,0.000000
2,5,0,0,14161106,137401801,2951930284682513530,1361358774.531257,14844,-3272,3372,nan,0.000000
2,5,0,0,14161106,137401801,2951930284682516151,1361358774.531257,14208,-3012,3316,nan,0.000000
2,5,0,0,14161106,137401801,2951930284682518772,1361358774.531257,14688,-1500,3948,nan,0.000000
2,5,0,0,14161106,137401801,2951930284682521393,1361358774.531257,17876,-1712,3552,nan,0.000000
2,5,0,0,14161106,137401801,2951930284682524014,1361358774.531257,18332,-3928,5320,nan,0.000000
1,5,1,0,14242475,137482885,-861246407913821171,1361358774.532964,11380,-1944,944,nan,0.000000
1,5,1,0,14242475,137482885,-861246407913818550,1361358774.532964,18296,2340,-1700,nan,0.000000
2,5,2,0,14242475,137482917,-861246407913815929,1361358774.533558,16560,-2440,1860,nan,0.000000
2,5,2,0,14242475,137482917,-861246407913813308,1361358774.533558,14700,-1604,488,nan,0.000000
2,5,2,0,14242475,137482917,-861246407913810687,1361358774.533558,15296,-3592,112,nan,0.000000
2,5,2,0,14242475,137482917,-861246407913808066,1361358774.533558,15928,-2572,460,nan,0.000000
2,5,2,0,14242475,137482917,-861246407913805445,1361358774.533558,15844,-3008,1464,nan,0.000000
2,5,3,0,14242475,137482949,-861246407913802824,1361358774.534939,15572,-5688,948,nan,0.000000
2,5,3,0,14242475,137482949,-861246407913800203,1361358774.534939,15704,-4616,1276,nan,0.000000
2,5,3,0,14242475,137482949,-861246407913797582,1361358774.534939,19128,-3668,708,nan,0.000000
2,5,3,0,14242475,137482949,-861246407913794961,1361358774.534939,11496,2320,-2536,nan,0.000000
2,5,3,0,14242475,137482949,-861246407913792340,1361358774.534939,20084,-4284,1004,nan,0.000000
2,5,4,0,14242475,137482981,-861246407913789719,1361358774.536115,15004,-1740,-1880,nan,0.000000
2,5,4,0,14242475,137482981,-861246407913787098,1361358774.536115,14676,-3156,1132,nan,0.000000
2,5,4,0,14242475,137482981,-861246407913784477,1361358774.536115,14872,-2832,2576,nan,0.000000
2,5,4,0,14242475,137482981,-861246407913781856,1361358774.536115,15540,-3376,3404,nan,0.000000
2,5,4,0,14242475,137482981,-861246407913779235,1361358774.536115,14472,-3780,4436,nan,0.000000
2,5,5,0,14242475,137483013,-861246407913776614,1361358774.536936,15764,-260,3248,nan,0.000000
2,5,5,0,14242475,137483013,-861246407913773993,1361358774.536936,19308,-5820,4368,nan,0.000000
2,5,5,0,14242475,137483013,-861246407913771372,1361358774.536936,16968,1532,-536,nan,0.000000
2,5,5,0,14242475,137483013,-861246407913768751,1361358774.536936,15624,928,452,nan,0.000000
2,5,5,0,14242475,137483013,-861246407913766130,1361358774.536936,16312,280,1756,nan,0.000000
2,5,6,0,14242475,137483045,-861246407913763509,1361358774.537605,13424,-3320,1016,nan,0.000000
2,5,6,0,14242475,137483045,-861246407913760888,1361358774.537605,15072,-3020,332,nan,0.000000
2,5,6,0,14242475,137483045,-861246407913758267,1361358774.537605,15276,-4080,2204,nan,0.000000
2,5,6,0,14242475,137483045,-861246407913755646,1361358774.537605,15304,-3116,1948,nan,0.000000
2,5,6,0,14242475,137483045,-861246407913753025,1361358774.537605,15504,-6052,2148,nan,0.000000
2,5,7,0,14242475,137483077,-861246407913750404,1361358777.014915,19972,-3908,2048,nan,0.000000
2,5,7,0,14242475,137483077,-861246407913747783,1361358777.014915,16316,-4788,1032,nan,0.000000
2,5,7,0,14242475,137483077,-861246407913745162,1361358777.014915,14268,3720,-1868,nan,0.000000
2,5,7,0,14242475,137483077,-861246407913742541,1361358777.014915,17236,-3900,1172,nan,0.000000
2,5,7,0,14242475,137483077,-861246407913739920,1361358777.014915,16608,-2844,-700,nan,0.000000
1,5,8,0,14323843,137564258,577671236159471624,1361358777.016861,14100,-1364,2800,nan,0.000000
1,5,8,0,14323843,137564258,577671236159474245,1361358777.016861,14620,-3940,3084,nan,0.000000
2,5,9,0,14323843,137564290,577671236159476866,1361358777.017267,15536,-3228,3708,nan,0.000000
2,5,9,0,14323843,137564290,577671236159479487,1361358777.017267,17124,-1488,4388,nan,0.000000
2,5,9,0,14323843,137564290,577671236159482108,1361358777.017267,17972,-5612,3400,nan,0.000000
2,5,9,0,14323843,137564290,577671236159484729,1361358777.017267,16600,192,-2052,nan,0.000000
2,5,9,0,14323843,137564290,577671236159487350,1361358777.017267,15816,376,-332,nan,0.000000
2,5,10,0,14323843,137564321,577671236159489971,1361358777.018830,16068,1024,1552,nan,0.000000
2,5,10,0,14323843,137564321,577671236159492592,1361358777.018830,14192,-4776,144,nan,0.000000
2,5,10,0,14323843,137564321,577671236159495213,1361358777.018830,14524,-3008,72,nan,0.000000
2,5,10,0,14323843,137564321,577671236159497834,1361358777.018830,14668,-3084,1056,nan,0.000000
2,5,10,0,14323843,137564321,577671236159500455,1361358777.018830,15692,-3884,2588,nan,0.000000
2,5,11,0,14323843,137564354,577671236159503076,1361358777.019856,17016,-6528,2428,nan,0.000000
2,5,11,0,14323843,137564354,577671236159505697,1361358777.019856,21696,-3824,-640,nan,0.000000
2,5,11,0,14323843,137564354,577671236159508318,1361358777.019856,12192,5272,-1696,nan,0.000000
2,5,11,0,14323843,137564354,577671236159510939,1361358777.019856,17324,-5128,292,nan,0.000000
2,5,11,0,14323843,137564354,577671236159513560,1361358777.019856,15052,-1732,-296,nan,0.000000
2,5,12,0,14323843,137564385,577671236159516181,1361358777.020826,13868,-2948,1980,nan,0.000000
2,5,12,0,14323843,137564385,577671236159518802,1361358777.020826,14392,-2612,3016,nan,0.000000
2,5,12,0,14323843,137564385,577671236159521423,1361358777.020826,14800,-2732,2736,nan,0.000000
2,5,12,0,14323843,137564385,577671236159524044,1361358777.020826,16156,-1920,3128,nan,0.000000
2,5,12,0,14323843,137564385,577671236159526665,1361358777.020826,18196,-5796,5544,nan,0.000000
2,5,13,0,14323843,137564417,577671236159529286,1361358777.021740,21784,1420,-2692,nan,0.000000
2,5,13,0,14323843,137564417,577671236159531907,1361358777.021740,11044,136,728,nan,0.000000
2,5,13,0,14323843,137564417,577671236159534528,1361358777.021740,17996,2104,-1036,nan,0.000000
2,5,13,0,14323843,137564417,577671236159537149,1361358777.021740,13796,-6252,-388,nan,0.000000
2,5,13,0,14323843,137564417,577671236159539770,1361358777.021740,14588,-1448,-396,nan,0.000000
2,5,14,0,14323843,137564449,577671236159542391,1361358779.505229,15196,-2740,624,nan,0.000000
2,5,14,0,14323843,137564449,577671236159545012,1361358779.505229,15836,-2980,1992,nan,0.000000
2,5,14,0,14323843,137564449,577671236159547633,1361358779.505229,15980,-6308,1760,nan,0.000000
2,5,14,0,14323843,137564449,577671236159550254,1361358779.505229,19420,-2744,1828,nan,0.000000
2,5,14,0,14323843,137564449,577671236159552875,1361358779.505229,16212,-200,-3216,nan,0.000000
1,5,15,0,14405211,137645809,-4033152734550200318,1361358779.506119,16684,-3692,-320,nan,0.000000
1,5,15,0,14405211,137645809,-4033152734550197697,1361358779.506119,14728,-2916,1104,nan,0.000000
2,5,0,0,14405211,137645841,-4033152734550195076,1361358779.506456,14028,-1892,1780,nan,0.000000
2,5,0,0,14405211,137645841,-4033152734550192455,1361358779.506456,14104,-2600,2868,nan,0.000000
2,5,0,0,14405211,137645841,-4033152734550189834,1361358779.506456,14804,-3144,3640,nan,0.000000
2,5,0,0,14405211,137645841,-4033152734550187213,1361358779.506456,17572,540,3188,nan,0.000000
2,5,0,0,14405211,137645841,-4033152734550184592,1361358779.506456,18616,-6792,6060,nan,0.000000
2,5,1,0,14405211,137645872,-4033152734550181971,1361358779.507525,18472,2964,676,nan,0.000000
2,5,1,0,14405211,137645872,-4033152734550179350,1361358779.507525,12336,-1892,724,nan,0.000000
2,5,1,0,14405211,137645872,-4033152734550176729,1361358779.507525,17064,4176,-720,nan,0.000000
2,5,1,0,14405211,137645872,-4033152734550174108,1361358779.507525,15440,-6080,2084,nan,0.000000
2,5,1,0,14405211,137645872,-4033152734550171487,1361358779.507525,14372,-1544,-340,nan,0.000000
2,5,2,0,14405211,137645905,-4033152734550168866,1361358779.507978,15396,-3404,1208,nan,0.000000
2,5,2,0,14405211,137645905,-4033152734550166245,1361358779.507978,16040,-2480,1408,nan,0.000000
2,5,2,0,14405211,137645905,-4033152734550163624,1361358779.507978,15240,-5868,2896,nan,0.000000
2,5,2,0,14405211,137645905,-4033152734550161003,1361358779.507978,16456,-4828,1312,nan,0.000000
2,5,2,0,14405211,137645905,-4033152734550158382,1361358779.507978,19736,-1824,744,nan,0.000000
2,5,3,0,14405211,137645936,-4033152734550155761,1361358779.508733,12980,3120,208,nan,0.000000
2,5,3,0,14405211,137645936,-4033152734550153140,1361358779.508733,18352,-5356,392,nan,0.000000
2,5,3,0,14405211,137645936,-4033152734550150519,1361358779.508733,15708,-1948,1368,nan,0.000000
2,5,3,0,14405211,137645936,-4033152734550147898,1361358779.508733,14200,-2192,2272,nan,0.000000
2,5,3,0,14405211,137645936,-4033152734550145277,1361358779.508733,13764,-2176,3208,nan,0.000000
2,5,4,0,14405211,137645969,-4033152734550142656,1361358779.509579,13960,-2464,4652,nan,0.000000
2,5,4,0,14405211,137645969,-4033152734550140035,1361358779.509579,14748,-2064,4336,nan,0.000000
2,5,4,0,14405211,137645969,-4033152734550137414,1361358779.509579,18404,-3364,6544,nan,0.000000
2,5,4,0,14405211,137645969,-4033152734550134793,1361358779.509579,21256,2316,1264,nan,0.000000
2,5,4,0,14405211,137645969,-4033152734550132172,1361358779.509579,13412,-492,652,nan,0.000000
2,5,5,0,14405211,137646000,-4033152734550129551,1361358781.980972,17012,2448,-320,nan,0.000000
2,5,5,0,14405211,137646000,-4033152734550126930,1361358781.980972,15016,-1360,2360,nan,0.000000
2,5,5,0,14405211,137646000,-4033152734550124309,1361358781.980972,15440,-2412,916,nan,0.000000
2,5,5,0,14405211,137646000,-4033152734550121688,1361358781.980972,15196,-3296,1644,nan,0.000000
2,5,5,0,14405211,137646000,-4033152734550119067,1361358781.980972,14784,-1996,1864,nan,0.000000
1,5,6,0,14486579,137727002,4037953131525095678,1361358781.986908,16404,-4504,2360,nan,0.000000
1,5,6,0,14486579,137727002,4037953131525098299,1361358781.986908,19976,-2744,1120,nan,0.000000
2,5,7,0,14486579,137727034,4037953131525100920,1361358781.988398,13704,3860,-1844,nan,0.000000
2,5,7,0,14486579,137727034,4037953131525103541,1361358781.988398,18452,-3472,572,nan,0.000000
2,5,7,0,14486579,137727034,4037953131525106162,1361358781.988398,15804,-1668,836,nan,0.000000
2,5,7,0,14486579,137727034,4037953131525108783,1361358781.988398,14720,-1484,1380,nan,0.000000
2,5,7,0,14486579,137727034,4037953131525111404,1361358781.988398,15116,-1604,3184,nan,0.000000
2,5,8,0,14486579,137727065,4037953131525114025,1361358781.991588,13972,-2136,3744,nan,0.000000
2,5,8,0,14486579,137727065,4037953131525116646,1361358781.991588,13404,-1628,4992,nan,0.000000
2,5,8,0,14486579,137727065,4037953131525119267,1361358781.991588,16184,-1068,3848,nan,0.000000
2,5,8,0,14486579,137727065,4037953131525121888,1361358781.991588,21448,-2892,5000,nan,0.000000
2,5,8,0,14486579,137727065,4037953131525124509,1361358781.991588,16068,2888,1000,nan,0.000000
2,5,9,0,14486579,137727098,4037953131525127130,1361358781.993531,14992,-1424,-2232,nan,0.000000
2,5,9,0,14486579,137727098,4037953131525129751,1361358781.993531,16296,868,-472,nan,0.000000
2,5,9,0,14486579,137727098,4037953131525132372,1361358781.993531,15496,-1720,-72,nan,0.000000
2,5,9,0,14486579,137727098,4037953131525134993,1361358781.993531,15292,-3552,196,nan,0.000000
2,5,9,0,14486579,137727098,4037953131525137614,1361358781.993531,14340,-5640,1288,nan,0.000000
2,5,10,0,14486579,137727129,4037953131525140235,1361358781.999838,14724,-5288,672,nan,0.000000
2,5,10,0,14486579,137727129,4037953131525142856,1361358781.999838,16140,-3964,744,nan,0.000000
2,5,10,0,14486579,137727129,4037953131525145477,1361358781.999838,17628,-5068,1788,nan,0.000000
2,5,10,0,14486579,137727129,4037953131525148098,1361358781.999838,18912,-4928,952,nan,0.000000
2,5,10,0,14486579,137727129,4037953131525150719,1361358781.999838,12684,1388,-3116,nan,0.000000
2,5,11,0,14486579,137727162,4037953131525153340,1361358782.000841,17992,-1668,-368,nan,0.000000
2,5,11,0,14486579,137727162,4037953131525155961,1361358782.000841,15580,-2964,1180,nan,0.000000
2,5,11,0,14486579,137727162,4037953131525158582,1361358782.000841,13876,-2492,104,nan,0.000000
2,5,11,0,14486579,137727162,4037953131525161203,1361358782.000841,14996,-2508,2580,nan,0.000000
2,5,11,0,14486579,137727162,4037953131525163824,1361358782.000841,14856,-2860,2744,nan,0.000000
2,5,12,0,14486579,137727193,4037953131525166445,1361358784.464993,14728,-2512,3288,nan,0.000000
2,5,12,0,14486579,137727193,4037953131525169066,1361358784.464993,16452,-392,1900,nan,0.000000
2,5,12,0,14486579,137727193,4037953131525171687,1361358784.464993,18160,-6472,5116,nan,0.000000
2,5,12,0,14486579,137727193,4037953131525174308,1361358784.464993,21232,1900,-904,nan,0.000000
2,5,12,0,14486579,137727193,4037953131525176929,1361358784.464993,11512,-1920,1396,nan,0.000000
1,5,13,0,14567948,137808374,7784323514395318284,1361358784.466730,14996,-1796,1832,nan,0.000000
1,5,13,0,14567948,137808374,7784323514395320905,1361358784.466730,15404,-2376,-60,nan,0.000000
2,5,14,0,14567948,137808406,7784323514395323526,1361358784.467316,14720,-3688,708,nan,0.000000
2,5,14,0,14567948,137808406,7784323514395326147,1361358784.467316,14792,-2568,1120,nan,0.000000
2,5,14,0,14567948,137808406,7784323514395328768,1361358784.467316,14932,-4052,1328,nan,0.000000
2,5,14,0,14567948,137808406,7784323514395331389,1361358784.467316,17980,-5240,1148,nan,0.000000
2,5,14,0,14567948,137808406,7784323514395334010,1361358784.467316,18856,-4552,2080,nan,0.000000
2,5,15,0,14567948,137808438,7784323514395336631,1361358784.468649,15784,2880,-2528,nan,0.000000
2,5,15,0,14567948,137808438,7784323514395339252,1361358784.468649,16700,-2972,48,nan,0.000000
2,5,15,0,14567948,137808438,7784323514395341873,1361358784.468649,15388,-2644,-936,nan,0.000000
2,5,15,0,14567948,137808438,7784323514395344494,1361358784.468649,15676,-1268,692,nan,0.000000
2,5,15,0,14567948,137808438,7784323514395347115,1361358784.468649,13576,-884,1596,nan,0.000000
2,5,0,0,14567948,137808470,7784323514395349736,1361358784.469606,14072,-2012,2196,nan,0.000000
2,5,0,0,14567948,137808470,7784323514395352357,1361358784.469606,15308,-2972,3284,nan,0.000000
2,5,0,0,14567948,137808470,7784323514395354978,1361358784.469606,16640,-1012,2036,nan,0.000000
2,5,0,0,14567948,137808470,7784323514395357599,1361358784.469606,16804,-5836,5416,nan,0.000000
2,5,0,0,14567948,137808470,7784323514395360220,1361358784.469606,19472,1460,-876,nan,0.000000
2,5,1,0,14567948,137808502,7784323514395362841,1361358784.470787,13996,-1508,596,nan,0.000000
2,5,1,0,14567948,137808502,7784323514395365462,1361358784.470787,17508,332,-1220,nan,0.000000
2,5,1,0,14567948,137808502,7784323514395368083,1361358784.470787,14704,-3072,1396,nan,0.000000
2,5,1,0,14567948,137808502,7784323514395370704,1361358784.470787,15524,-764,-332,nan,0.000000
2,5,1,0,14567948,137808502,7784323514395373325,1361358784.470787,14568,-5048,1016,nan,0.000000
2,5,2,0,14567948,137808534,7784323514395375946,1361358784.471533,15256,-2472,908,nan,0.000000
2,5,2,0,14567948,137808534,7784323514395378567,1361358784.471533,15076,-3684,2284,nan,0.000000
2,5,2,0,14567948,137808534,7784323514395381188,1361358784.471533,15712,-7108,2768,nan,0.000000
2,5,2,0,14567948,137808534,7784323514395383809,1361358784.471533,18836,-4632,2464,nan,0.000000
2,5,2,0,14567948,137808534,7784323514395386430,1361358784.471533,18028,-2572,-564,nan,0.000000
1,5,4,0,14649315,138215225,1016964239637746,1361358796.882697,15232,-2824,2724,nan,0.000000
1,5,4,0,14649315,138215225,1016964239640367,1361358796.882697,17292,-296,4628,nan,0.000000
2,5,5,0,14649315,138215257,1016964239642988,1361358796.883593,20764,-6996,3208,nan,0.000000
2,5,5,0,14649315,138215257,1016964239645609,1361358796.883593,13972,3096,2440,nan,0.000000
2,5,5,0,14649315,138215257,1016964239648230,1361358796.883593,13560,-1808,324,nan,0.000000
2,5,5,0,14649315,138215257,1016964239650851,1361358796.883593,17780,-1492,1508,nan,0.000000
2,5,5,0,14649315,138215257,1016964239653472,1361358796.883593,14820,-476,3168,nan,0.000000
2,5,6,0,14649315,138215289,1016964239656093,1361358796.884717,14268,-2944,1600,nan,0.000000
2,5,6,0,14649315,138215289,1016964239658714,1361358796.884717,14440,-3992,928,nan,0.000000
2,5,6,0,14649315,138215289,1016964239661335,1361358796.884717,16068,-1776,1448,nan,0.000000
2,5,6,0,14649315,138215289,1016964239663956,1361358796.884717,16284,-4436,2772,nan,0.000000
2,5,6,0,14649315,138215289,1016964239666577,1361358796.884717,17100,-5032,3132,nan,0.000000
2,5,7,0,14649315,138215321,1016964239669198,1361358796.885511,18176,-5188,2508,nan,0.000000
2,5,7,0,14649315,138215321,1016964239671819,1361358796.885511,15652,-148,-1808,nan,0.000000
2,5,7,0,14649315,138215321,1016964239674440,1361358796.885511,15244,2096,-652,nan,0.000000
2,5,7,0,14649315,138215321,1016964239677061,1361358796.885511,17136,-3728,1164,nan,0.000000
2,5,7,0,14649315,138215321,1016964239679682,1361358796.885511,14224,-3748,-236,nan,0.000000
2,5,8,0,14649315,138215353,1016964239682303,1361358796.886689,14572,-3144,1756,nan,0.000000
2,5,8,0,14649315,138215353,1016964239684924,1361358796.886689,14192,-2996,3000,nan,0.000000
2,5,8,0,14649315,138215353,1016964239687545,1361358796.886689,14812,-4148,3096,nan,0.000000
2,5,8,0,14649315,138215353,1016964239690166,1361358796.886689,15320,-4752,2464,nan,0.000000
2,5,8,0,14649315,138215353,1016964239692787,1361358796.886689,17652,-2184,4768,nan,0.000000
2,5,9,0,14649315,138215385,1016964239695408,1361358796.887267,20664,-3080,664,nan,0.000000
2,5,9,0,14649315,138215385,1016964239698029,1361358796.887267,13280,-1420,980,nan,0.000000
2,5,9,0,14649315,138215385,1016964239700650,1361358796.887267,13888,-1136,-1668,nan,0.000000
2,5,9,0,14649315,138215385,1016964239703271,1361358796.887267,17628,-2908,-580,nan,0.000000
2,5,9,0,14649315,138215385,1016964239705892,1361358796.887267,13988,-3364,1504,nan,0.000000
2,5,10,0,14649315,138215417,1016964239708513,1361358796.888392,14932,-3468,-332,nan,0.000000
2,5,10,0,14649315,138215417,1016964239711134,1361358796.888392,15832,-4016,448,nan,0.000000
2,5,10,0,14649315,138215417,1016964239713755,1361358796.888392,15864,-3504,-28,nan,0.000000
2,5,10,0,14649315,138215417,1016964239716376,1361358796.888392,16212,-6324,440,nan,0.000000
2,5,10,0,14649315,138215417,1016964239718997,1361358796.888392,18288,-2572,632,nan,0.000000
1,5,11,0,14730682,138215453,-4611315548100381442,1361358796.889142,13960,3564,-1624,nan,0.000000
1,5,11,15,14730682,138215453,-4611315548100378821,1361358796.889142,17176,-4076,1796,nan,0.000000
2,5,12,15,14730682,138215485,-4611315548100376200,1361358796.890347,14948,-1604,-256,nan,0.000000
2,5,12,15,14730682,138215485,-4611315548100373579,1361358796.890347,14656,-3508,2360,nan,0.000000
2,5,12,15,14730682,138215485,-4611315548100370958,1361358796.890347,15504,-2160,1380,nan,0.000000
2,5,12,15,14730682,138215485,-4611315548100368337,1361358796.890347,14452,-2008,2128,nan,0.000000
2,5,12,15,14730682,138215485,-4611315548100365716,1361358796.890347,16368,-696,2108,nan,0.000000
2,5,13,15,14730682,138215517,-4611315548100363095,1361358796.891111,16008,-3612,4180,nan,0.000000
2,5,13,15,14730682,138215517,-4611315548100360474,1361358796.891111,20288,-6192,1152,nan,0.000000
2,5,13,15,14730682,138215517,-4611315548100357853,1361358796.891111,12344,-828,512,nan,0.000000
2,5,13,15,14730682,138215517,-4611315548100355232,1361358796.891111,15088,-192,-2764,nan,0.000000
2,5,13,15,14730682,138215517,-4611315548100352611,1361358796.891111,18932,24,-692,nan,0.000000
2,5,14,15,14730682,138215549,-4611315548100349990,1361358796.892353,15052,-2212,-100,nan,0.000000
2,5,14,15,14730682,138215549,-4611315548100347369,1361358796.892353,15812,-2724,-564,nan,0.000000
2,5,14,15,14730682,138215549,-4611315548100344748,1361358796.892353,15308,-2924,84,nan,0.000000
2,5,14,15,14730682,138215549,-4611315548100342127,1361358796.892353,14740,-2928,232,nan,0.000000
2,5,14,15,14730682,138215549,-4611315548100339506,1361358796.892353,15064,-4052,576,nan,0.000000
2,5,15,15,14730682,138215581,-4611315548100336885,1361358796.896443,19460,-3740,1528,nan,0.000000
2,5,15,15,14730682,138215581,-4611315548100334264,1361358796.896443,16760,-2448,-2292,nan,0.000000
2,5,15,15,14730682,138215581,-4611315548100331643,1361358796.896443,15292,1112,452,nan,0.000000
2,5,15,15,14730682,138215581,-4611315548100329022,1361358796.896443,16864,-5388,-400,nan,0.000000
2,5,15,15,14730682,138215581,-4611315548100326401,1361358796.896443,14128,-1836,792,nan,0.000000
2,5,0,15,14730682,138215613,-4611315548100323780,1361358796.899859,14772,-1592,1452,nan,0.000000
2,5,0,15,14730682,138215613,-4611315548100321159,1361358796.899859,15728,-260,1708,nan,0.000000
2,5,0,15,14730682,138215613,-4611315548100318538,1361358796.899859,14812,-1768,2752,nan,0.000000
2,5,0,15,14730682,138215613,-4611315548100315917,1361358796.899859,16400,-3000,1608,nan,0.000000
2,5,0,15,14730682,138215613,-4611315548100313296,1361358796.899859,15756,-8088,5280,nan,0.000000
2,5,1,15,14730682,138215645,-4611315548100310675,1361358796.902428,20584,-2968,-1160,nan,0.000000
2,5,1,15,14730682,138215645,-4611315548100308054,1361358796.902428,9940,-1084,-52,nan,0.000000
2,5,1,15,14730682,138215645,-4611315548100305433,1361358796.902428,18436,620,-2340,nan,0.000000
2,5,1,15,14730682,138215645,-4611315548100302812,1361358796.902428,16304,-3444,1072,nan,0.000000
2,5,1,15,14730682,138215645,-4611315548100300191,1361358796.902428,14572,-1652,812,nan,0.000000
1,5,2,0,14812049,138215677,-3675002185035908869,1361358796.904506,15196,-3508,756,nan,0.000000
1,5,2,0,14812049,138215677,-3675002185035906248,1361358796.904506,14868,-3208,632,nan,0.000000
2,5,3,0,14812049,138215709,-3675002185035903627,1361358796.905604,16444,-5540,1176,nan,0.000000
2,5,3,0,14812049,138215709,-3675002185035901006,1361358796.905604,19720,-4196,2236,nan,0.000000
2,5,3,0,14812049,138215709,-3675002185035898385,1361358796.905604,16268,-3684,-1376,nan,0.000000
2,5,3,0,14812049,138215709,-3675002185035895764,1361358796.905604,13780,3916,-1352,nan,0.000000
2,5,3,0,14812049,138215709,-3675002185035893143,1361358796.905604,17556,-6660,888,nan,0.000000
2,5,4,0,14812049,138215741,-3675002185035890522,1361358796.908025,15400,-1408,-948,nan,0.000000
2,5,4,0,14812049,138215741,-3675002185035887901,1361358796.908025,13780,-1804,1904,nan,0.000000
2,5,4,0,14812049,138215741,-3675002185035885280,1361358796.908025,14344,-2644,2688,nan,0.000000
2,5,4,0,14812049,138215741,-3675002185035882659,1361358796.908025,14932,-2712,2436,nan,0.000000
2,5,4,0,14812049,138215741,-3675002185035880038,1361358796.908025,15648,-2900,2344,nan,0.000000
2,5,5,0,14812049,138215773,-3675002185035877417,1361358796.910428,16548,-4872,5416,nan,0.000000
2,5,5,0,14812049,138215773,-3675002185035874796,1361358796.910428,21884,-1924,-132,nan,0.000000
2,5,5,0,14812049,138215773,-3675002185035872175,1361358796.910428,11948,128,-128,nan,0.000000
2,5,5,0,14812049,138215773,-3675002185035869554,1361358796.910428,17816,256,-1264,nan,0.000000
2,5,5,0,14812049,138215773,-3675002185035866933,1361358796.910428,16088,-1204,1020,nan,0.000000
2,5,6,0,14812049,138215805,-3675002185035864312,1361358796.914758,13964,-2816,-1056,nan,0.000000
2,5,6,0,14812049,138215805,-3675002185035861691,1361358796.914758,14252,-3492,632,nan,0.000000
2,5,6,0,14812049,138215805,-3675002185035859070,1361358796.914758,14556,-2968,632,nan,0.000000
2,5,6,0,14812049,138215805,-3675002185035856449,1361358796.914758,16400,-4200,1524,nan,0.000000
2,5,6,0,14812049,138215805,-3675002185035853828,1361358796.914758,17940,-5572,2064,nan,0.000000
2,5,7,0,14812049,138215837,-3675002185035851207,1361358796.917074,18268,-4904,1936,nan,0.000000
2,5,7,0,14812049,138215837,-3675002185035848586,1361358796.917074,15292,-392,-2452,nan,0.000000
2,5,7,0,14812049,138215837,-3675002185035845965,1361358796.917074,15040,2396,-776,nan,0.000000
2,5,7,0,14812049,138215837,-3675002185035843344,1361358796.917074,17384,-4808,-344,nan,0.000000
2,5,7,0,14812049,138215837,-3675002185035840723,1361358796.917074,14656,-4136,120,nan,0.000000
2,5,8,0,14812049,138215869,-3675002185035838102,1361358796.923324,13616,-2576,2188,nan,0.000000
2,5,8,0,14812049,138215869,-3675002185035835481,1361358796.923324,14292,-3080,3480,nan,0.000000
2,5,8,0,14812049,138215869,-3675002185035832860,1361358796.923324,14508,-3580,3632,nan,0.000000
2,5,8,0,14812049,138215869,-3675002185035830239,1361358796.923324,17440,760,3612,nan,0.000000
2,5,8,0,14812049,138215869,-3675002185035827618,1361358796.923324,19360,-7344,5224,nan,0.000000
1,5,9,0,14893414,138215901,-7490056879126115320,1361358796.925646,11272,-1760,576,nan,0.000000
1,5,9,0,14893414,138215901,-7490056879126112699,1361358796.925646,19128,1392,-740,nan,0.000000
2,5,10,0,14893414,138215933,-7490056879126110078,1361358796.927077,13836,-3860,1816,nan,0.000000
2,5,10,0,14893414,138215933,-7490056879126107457,1361358796.927077,14324,-2084,200,nan,0.000000
2,5,10,0,14893414,138215933,-7490056879126104836,1361358796.927077,14980,-4568,1460,nan,0.000000
2,5,10,0,14893414,138215933,-7490056879126102215,1361358796.927077,15480,-2632,1720,nan,0.000000
2,5,10,0,14893414,138215933,-7490056879126099594,1361358796.927077,15712,-6832,2204,nan,0.000000
2,5,11,0,14893414,138215965,-7490056879126096973,1361358796.928710,19972,-4716,1960,nan,0.000000
2,5,11,0,14893414,138215965,-7490056879126094352,1361358796.928710,16688,-1392,-1792,nan,0.000000
2,5,11,0,14893414,138215965,-7490056879126091731,1361358796.928710,14176,2400,176,nan,0.000000
2,5,11,0,14893414,138215965,-7490056879126089110,1361358796.928710,17104,-5964,-260,nan,0.000000
2,5,11,0,14893414,138215965,-7490056879126086489,1361358796.928710,15256,-2020,144,nan,0.000000
2,5,12,0,14893414,138215997,-7490056879126083868,1361358796.931818,13544,-2128,2064,nan,0.000000
2,5,12,0,14893414,138215997,-7490056879126081247,1361358796.931818,14056,-3400,2928,nan,0.000000
2,5,12,0,14893414,138215997,-7490056879126078626,1361358796.931818,14788,-3380,2856,nan,0.000000
2,5,12,0,14893414,138215997,-7490056879126076005,1361358796.931818,15976,-1892,2148,nan,0.000000
2,5,12,0,14893414,138215997,-7490056879126073384,1361358796.931818,18928,-7304,5044,nan,0.000000
2,5,13,0,14893414,138216029,-7490056879126070763,1361358796.934773,18604,1508,-3080,nan,0.000000
2,5,13,0,14893414,138216029,-7490056879126068142,1361358796.934773,14768,-308,-436,nan,0.000000
2,5,13,0,14893414,138216029,-7490056879126065521,1361358796.934773,16356,-868,1184,nan,0.000000
2,5,13,0,14893414,138216029,-7490056879126062900,1361358796.934773,13420,-3864,1100,nan,0.000000
2,5,13,0,14893414,138216029,-7490056879126060279,1361358796.934773,15344,-940,-560,nan,0.000000
2,5,14,0,14893414,138216061,-7490056879126057658,1361358796.937501,14292,-5604,1796,nan,0.000000
2,5,14,0,14893414,138216061,-7490056879126055037,1361358796.937501,15680,-3368,1360,nan,0.000000
2,5,14,0,14893414,138216061,-7490056879126052416,1361358796.937501,16088,-6056,1684,nan,0.000000
2,5,14,0,14893414,138216061,-7490056879126049795,1361358796.937501,19728,-5396,1904,nan,0.000000
2,5,14,0,14893414,138216061,-7490056879126047174,1361358796.937501,16504,-2956,-1308,nan,0.000000
2,5,15,0,14893414,138216093,-7490056879126044553,1361358796.945068,13912,2872,-2100,nan,0.000000
2,5,15,0,14893414,138216093,-7490056879126041932,1361358796.945068,17064,-3872,408,nan,0.000000
2,5,15,0,14893414,138216093,-7490056879126039311,1361358796.945068,15424,-3708,-292,nan,0.000000
2,5,15,0,14893414,138216093,-7490056879126036690,1361358796.945068,14068,-2536,912,nan,0.000000
2,5,15,0,14893414,138216093,-7490056879126034069,1361358796.945068,14140,-2192,1808,nan,0.000000
1,5,0,0,14974779,138216125,-7493460980748071689,1361358796.949420,16904,-2372,2052,nan,0.000000
1,5,0,0,14974779,138216125,-7493460980748069068,1361358796.949420,17728,-7436,3896,nan,0.000000
2,5,1,0,14974779,138216157,-7493460980748066447,1361358796.950685,19652,-684,-2464,nan,0.000000
2,5,1,0,14974779,138216157,-7493460980748063826,1361358796.950685,11704,-1984,-1184,nan,0.000000
2,5,1,0,14974779,138216157,-7493460980748061205,1361358796.950685,19216,2920,-1928,nan,0.000000
2,5,1,0,14974779,138216157,-7493460980748058584,1361358796.950685,14448,-3656,32,nan,0.000000
2,5,1,0,14974779,138216157,-7493460980748055963,1361358796.950685,14520,-2380,-1364,nan,0.000000
2,5,2,0,14974779,138216188,-7493460980748053342,1361358796.953740,15828,-2900,-328,nan,0.000000
2,5,2,0,14974779,138216188,-7493460980748050721,1361358796.953740,15524,-3408,96,nan,0.000000
2,5,2,0,14974779,138216188,-7493460980748048100,1361358796.953740,15628,-4524,1028,nan,0.000000
2,5,2,0,14974779,138216188,-7493460980748045479,1361358796.953740,17144,-4828,1780,nan,0.000000
2,5,2,0,14974779,138216188,-7493460980748042858,1361358796.953740,17992,-5296,1236,nan,0.000000
2,5,3,0,14974779,138216221,-7493460980748040237,1361358796.956657,14308,712,-3596,nan,0.000000
2,5,3,0,14974779,138216221,-7493460980748037616,1361358796.956657,15856,-328,604,nan,0.000000
2,5,3,0,14974779,138216221,-7493460980748034995,1361358796.956657,17776,-4488,-548,nan,0.000000
2,5,3,0,14974779,138216221,-7493460980748032374,1361358796.956657,14156,-3520,980,nan,0.000000
2,5,3,0,14974779,138216221,-7493460980748029753,1361358796.956657,14248,-1548,2052,nan,0.000000
2,5,4,0,14974779,138216252,-7493460980748027132,1361358796.959175,14100,-2520,2352,nan,0.000000
2,5,4,0,14974779,138216252,-7493460980748024511,1361358796.959175,15752,-3588,2000,nan,0.000000
2,5,4,0,14974779,138216252,-7493460980748021890,1361358796.959175,17384,-1136,3176,nan,0.000000
2,5,4,0,14974779,138216252,-7493460980748019269,1361358796.959175,19156,-8080,2752,nan,0.000000
2,5,4,0,14974779,138216252,-7493460980748016648,1361358796.959175,15592,420,776,nan,0.000000
2,5,5,0,14974779,138216285,-7493460980748014027,1361358796.962180,11764,-2928,-1156,nan,0.000000
2,5,5,0,14974779,138216285,-7493460980748011406,1361358796.962180,19776,900,-3172,nan,0.000000
2,5,5,0,14974779,138216285,-7493460980748008785,1361358796.962180,15112,-4356,2244,nan,0.000000
2,5,5,0,14974779,138216285,-7493460980748006164,1361358796.962180,14760,-2100,-1212,nan,0.000000
2,5,5,0,14974779,138216285,-7493460980748003543,1361358796.962180,15708,-3936,196,nan,0.000000
2,5,6,0,14974779,138216316,-7493460980748000922,1361358799.364706,15276,-3788,376,nan,0.000000
2,5,6,0,14974779,138216316,-7493460980747998301,1361358799.364706,15280,-4572,512,nan,0.000000
2,5,6,0,14974779,138216316,-7493460980747995680,1361358799.364706,16772,-4732,2356,nan,0.000000
2,5,6,0,14974779,138216316,-7493460980747993059,1361358799.364706,18268,-5320,-104,nan,0.000000
2,5,6,0,14974779,138216316,-7493460980747990438,1361358799.364706,13000,2008,-1892,nan,0.000000
1,5,7,0,15056144,138296594,603557530925057,1361358799.366373,16384,-3348,-1612,nan,0.000000
1,5,7,1,15056144,138296594,603557530927678,1361358799.366373,14168,-3460,780,nan,0.000000
2,5,8,1,15056144,138296626,603557530930299,1361358799.366869,13992,-936,1540,nan,0.000000
2,5,8,1,15056144,138296626,603557530932920,1361358799.366869,14884,-1048,2144,nan,0.000000
2,5,8,1,15056144,138296626,603557530935541,1361358799.366869,16044,-2640,600,nan,0.000000
2,5,8,1,15056144,138296626,603557530938162,1361358799.366869,16124,-2988,3356,nan,0.000000
2,5,8,1,15056144,138296626,603557530940783,1361358799.366869,16028,-7588,2932,nan,0.000000
2,5,9,1,15056144,138296658,603557530943404,1361358799.368315,22072,-192,-308,nan,0.000000
2,5,9,1,15056144,138296658,603557530946025,1361358799.368315,9636,-4468,752,nan,0.000000
2,5,9,1,15056144,138296658,603557530948646,1361358799.368315,19004,3040,-3464,nan,0.000000
2,5,9,1,15056144,138296658,603557530951267,1361358799.368315,16052,-3492,1212,nan,0.000000
2,5,9,1,15056144,138296658,603557530953888,1361358799.368315,14704,-1816,496,nan,0.000000
2,5,10,1,15056144,138296690,603557530956509,1361358799.369315,14968,-3348,-180,nan,0.000000
2,5,10,1,15056144,138296690,603557530959130,1361358799.369315,15520,-2448,648,nan,0.000000
2,5,10,1,15056144,138296690,603557530961751,1361358799.369315,15288,-4408,1436,nan,0.000000
2,5,10,1,15056144,138296690,603557530964372,1361358799.369315,15316,-6616,1128,nan,0.000000
2,5,10,1,15056144,138296690,603557530966993,1361358799.369315,20120,-2456,1880,nan,0.000000
2,5,11,1,15056144,138296722,603557530969614,1361358799.370285,16348,-3244,-2268,nan,0.000000
2,5,11,1,15056144,138296722,603557530972235,1361358799.370285,14608,4264,-1360,nan,0.000000
2,5,11,1,15056144,138296722,603557530974856,1361358799.370285,16584,-6148,160,nan,0.000000
2,5,11,1,15056144,138296722,603557530977477,1361358799.370285,14860,-2428,-60,nan,0.000000
2,5,11,1,15056144,138296722,603557530980098,1361358799.370285,13896,-3016,1524,nan,0.000000
2,5,12,1,15056144,138296754,603557530982719,1361358799.371071,14612,-2708,2308,nan,0.000000
2,5,12,1,15056144,138296754,603557530985340,1361358799.371071,14736,-2916,2832,nan,0.000000
2,5,12,1,15056144,138296754,603557530987961,1361358799.371071,16628,-1608,2848,nan,0.000000
2,5,12,1,15056144,138296754,603557530990582,1361358799.371071,18020,-5120,5548,nan,0.000000
2,5,12,1,15056144,138296754,603557530993203,1361358799.371071,21220,480,-272,nan,0.000000
2,5,13,1,15056144,138296786,603557530995824,1361358801.848441,9712,-1604,2428,nan,0.000000
2,5,13,1,15056144,138296786,603557530998445,1361358801.848441,18972,2512,-3268,nan,0.000000
2,5,13,1,15056144,138296786,603557531001066,1361358801.848441,16052,-4116,1808,nan,0.000000
2,5,13,1,15056144,138296786,603557531003687,1361358801.848441,14672,-952,-12,nan,0.000000
2,5,13,1,15056144,138296786,603557531006308,1361358801.848441,14296,-3004,752,nan,0.000000
1,5,14,0,15137507,138377961,4392082799164292105,1361358801.849686,15400,-3680,2448,nan,0.000000
1,5,14,0,15137507,138377961,4392082799164294726,1361358801.849686,17204,-4480,2208,nan,0.000000
2,5,15,0,15137507,138377993,4392082799164297347,1361358801.850249,18704,-4028,3852,nan,0.000000
2,5,15,0,15137507,138377993,4392082799164299968,1361358801.850249,18260,-2632,-2256,nan,0.000000
2,5,15,0,15137507,138377993,4392082799164302589,1361358801.850249,12644,1976,-60,nan,0.000000
2,5,15,0,15137507,138377993,4392082799164305210,1361358801.850249,17428,-2044,-252,nan,0.000000
2,5,15,0,15137507,138377993,4392082799164307831,1361358801.850249,15344,-3280,540,nan,0.000000
2,5,0,0,15137507,138378025,4392082799164310452,1361358801.852387,13416,-2792,1536,nan,0.000000
2,5,0,0,15137507,138378025,4392082799164313073,1361358801.852387,13868,-1960,3024,nan,0.000000
2,5,0,0,15137507,138378025,4392082799164315694,1361358801.852387,15312,-2420,3428,nan,0.000000
2,5,0,0,15137507,138378025,4392082799164318315,1361358801.852387,17464,-1856,3364,nan,0.000000
2,5,0,0,15137507,138378025,4392082799164320936,1361358801.852387,18716,-8508,5840,nan,0.000000
2,5,1,0,15137507,138378057,4392082799164323557,1361358801.853846,18964,3404,-1396,nan,0.000000
2,5,1,0,15137507,138378057,4392082799164326178,1361358801.853846,11768,-1564,1920,nan,0.000000
2,5,1,0,15137507,138378057,4392082799164328799,1361358801.853846,17588,636,-1268,nan,0.000000
2,5,1,0,15137507,138378057,4392082799164331420,1361358801.853846,16256,-3360,1660,nan,0.000000
2,5,1,0,15137507,138378057,4392082799164334041,1361358801.853846,13736,-2416,392,nan,0.000000
2,5,2,0,15137507,138378089,4392082799164336662,1361358801.854558,14144,-3660,912,nan,0.000000
2,5,2,0,15137507,138378089,4392082799164339283,1361358801.854558,15332,-3480,1608,nan,0.000000
2,5,2,0,15137507,138378089,4392082799164341904,1361358801.854558,15992,-4684,2380,nan,0.000000
2,5,2,0,15137507,138378089,4392082799164344525,1361358801.854558,16516,-6004,2724,nan,0.000000
2,5,2,0,15137507,138378089,4392082799164347146,1361358801.854558,18288,-4964,1688,nan,0.000000
2,5,3,0,15137507,138378120,4392082799164349767,1361358801.855273,17104,1228,-1512,nan,0.000000
2,5,3,0,15137507,138378120,4392082799164352388,1361358801.855273,13632,136,-328,nan,0.000000
2,5,3,0,15137507,138378120,4392082799164355009,1361358801.855273,16828,-3820,612,nan,0.000000
2,5,3,0,15137507,138378120,4392082799164357630,1361358801.855273,15212,-4140,364,nan,0.000000
2,5,3,0,15137507,138378120,4392082799164360251,1361358801.855273,13852,-3176,2100,nan,0.000000
2,5,4,0,15137507,138378153,4392082799164362872,1361358804.330603,14300,-3680,3476,nan,0.000000
2,5,4,0,15137507,138378153,4392082799164365493,1361358804.330603,14696,-3720,3464,nan,0.000000
2,5,4,0,15137507,138378153,4392082799164368114,1361358804.330603,17376,-1724,3164,nan,0.000000
2,5,4,0,15137507,138378153,4392082799164370735,1361358804.330603,21132,-6008,4384,nan,0.000000
2,5,4,0,15137507,138378153,4392082799164373356,1361358804.330603,14684,-264,-216,nan,0.000000
1,5,5,0,15218870,138459327,-8643119131623058419,1361358804.332227,17980,1268,-784,nan,0.000000
1,5,5,0,15218870,138459327,-8643119131623055798,1361358804.332227,14920,-5084,504,nan,0.000000
2,5,6,0,15218870,138459359,-8643119131623053177,1361358804.332825,13960,-2496,532,nan,0.000000
2,5,6,0,15218870,138459359,-8643119131623050556,1361358804.332825,15284,-3212,368,nan,0.000000
2,5,6,0,15218870,138459359,-8643119131623047935,1361358804.332825,15996,-2564,1812,nan,0.000000
2,5,6,0,15218870,138459359,-8643119131623045314,1361358804.332825,15076,-7320,1896,nan,0.000000
2,5,6,0,15218870,138459359,-8643119131623042693,1361358804.332825,20864,-4612,1956,nan,0.000000
2,5,7,0,15218870,138459391,-8643119131623040072,1361358804.334197,15148,1412,-4704,nan,0.000000
2,5,7,0,15218870,138459391,-8643119131623037451,1361358804.334197,15400,-816,1896,nan,0.000000
2,5,7,0,15218870,138459391,-8643119131623034830,1361358804.334197,16740,-3396,-1600,nan,0.000000
2,5,7,0,15218870,138459391,-8643119131623032209,1361358804.334197,14188,-3756,812,nan,0.000000
2,5,7,0,15218870,138459391,-8643119131623029588,1361358804.334197,14440,-1420,2116,nan,0.000000
2,5,8,0,15218870,138459423,-8643119131623026967,1361358804.335124,15028,-3176,2844,nan,0.000000
2,5,8,0,15218870,138459423,-8643119131623024346,1361358804.335124,15712,-3192,2992,nan,0.000000
2,5,8,0,15218870,138459423,-8643119131623021725,1361358804.335124,15952,-2736,3288,nan,0.000000
2,5,8,0,15218870,138459423,-8643119131623019104,1361358804.335124,17164,-5316,5012,nan,0.000000
2,5,8,0,15218870,138459423,-8643119131623016483,1361358804.335124,17920,-372,-104,nan,0.000000
2,5,9,0,15218870,138459455,-8643119131623013862,1361358804.336236,11372,-3976,332,nan,0.000000
2,5,9,0,15218870,138459455,-8643119131623011241,1361358804.336236,20372,828,-664,nan,0.000000
2,5,9,0,15218870,138459455,-8643119131623008620,1361358804.336236,14328,-4456,2580,nan,0.000000
2,5,9,0,15218870,138459455,-8643119131623005999,1361358804.336236,14400,-1736,1220,nan,0.000000
2,5,9,0,15218870,138459455,-8643119131623003378,1361358804.336236,14804,-3604,1384,nan,0.000000
2,5,10,0,15218870,138459487,-8643119131623000757,1361358804.337248,16112,-4608,1348,nan,0.000000
2,5,10,0,15218870,138459487,-8643119131622998136,1361358804.337248,15492,-5404,840,nan,0.000000
2,5,10,0,15218870,138459487,-8643119131622995515,1361358804.337248,16952,-4056,1940,nan,0.000000
2,5,10,0,15218870,138459487,-8643119131622992894,1361358804.337248,19316,-5356,328,nan,0.000000
2,5,10,0,15218870,138459487,-8643119131622990273,1361358804.337248,13656,4100,-3096,nan,0.000000
2,5,11,0,15218870,138459519,-8643119131622987652,1361358806.814527,17708,-3432,2508,nan,0.000000
2,5,11,0,15218870,138459519,-8643119131622985031,1361358806.814527,15968,-3472,-1732,nan,0.000000
2,5,11,0,15218870,138459519,-8643119131622982410,1361358806.814527,13916,-3104,1468,nan,0.000000
2,5,11,0,15218870,138459519,-8643119131622979789,1361358806.814527,15728,-2860,1588,nan,0.000000
