type,ID,seq,packetLoss,nodeTimestamp,bsTimestamp,syncTimestamp,systemTime,accelX,accelY,accelZ,cannula,voltage
1,5,15,0,12408425,370541339,928336206090527971,1361365897.150925,11612,-8948,-5860,nan,0.000000
1,5,15,0,12408425,370541339,928336206090530592,1361365897.150925,11996,-7616,-5072,nan,0.000000
2,5,0,0,12408425,370541371,928336206090533213,1361365897.151378,12188,-9152,-4324,nan,0.000000
2,5,0,0,12408425,370541371,928336206090535834,1361365897.151378,12000,-9428,-4816,nan,0.000000
2,5,0,0,12408425,370541371,928336206090538455,1361365897.151378,11348,-9128,-4736,nan,0.000000
2,5,0,0,12408425,370541371,928336206090541076,1361365897.151378,11552,-7616,-4884,nan,0.000000
2,5,0,0,12408425,370541371,928336206090543697,1361365897.151378,12472,-8880,-5332,nan,0.000000
2,5,1,0,12408425,370541402,928336206090546318,1361365897.152355,12128,-11244,-5328,nan,0.000000
2,5,1,0,12408425,370541402,928336206090548939,1361365897.152355,12016,-12196,-5824,nan,0.000000
2,5,1,0,12408425,370541402,928336206090551560,1361365897.152355,12640,-8932,-7512,nan,0.000000
2,5,1,0,12408425,370541402,928336206090554181,1361365897.152355,12172,-7848,-6992,nan,0.000000
2,5,1,0,12408425,370541402,928336206090556802,1361365897.152355,14164,-11572,-6092,nan,0.000000
2,5,2,0,12408425,370541434,928336206090559423,1361365897.153040,13416,-9940,-5860,nan,0.000000
2,5,2,0,12408425,370541434,928336206090562044,1361365897.153040,13636,-8564,-4772,nan,0.000000
2,5,2,0,12408425,370541434,928336206090564665,1361365897.153040,14480,-6128,-5040,nan,0.000000
2,5,2,0,12408425,370541434,928336206090567286,1361365897.153040,14528,-6032,-4976,nan,0.000000
2,5,2,0,12408425,370541434,928336206090569907,1361365897.153040,13136,-6292,-4240,nan,0.000000
2,5,3,0,12408425,370541466,928336206090572528,1361365897.153644,12716,-6908,-3676,nan,0.000000
2,5,3,0,12408425,370541466,928336206090575149,1361365897.153644,13748,-5980,-2792,nan,0.000000
2,5,3,0,12408425,370541466,928336206090577770,1361365897.153644,13784,-5848,-2336,nan,0.000000
2,5,3,0,12408425,370541466,928336206090580391,1361365897.153644,13516,-6420,-668,nan,0.000000
2,5,3,0,12408425,370541466,928336206090583012,1361365897.153644,14276,-5448,-20,nan,0.000000
2,5,4,0,12408425,370541497,928336206090585633,1361365897.154463,15200,-4544,1024,nan,0.000000
2,5,4,0,12408425,370541497,928336206090588254,1361365897.154463,15320,-3084,1644,nan,0.000000
2,5,4,0,12408425,370541497,928336206090590875,1361365897.154463,15452,-3080,1772,nan,0.000000
2,5,4,0,12408425,370541497,928336206090593496,1361365897.154463,14804,-4836,460,nan,0.000000
2,5,4,0,12408425,370541497,928336206090596117,1361365897.154463,14796,-5168,-292,nan,0.000000
2,5,5,0,12408425,370541529,928336206090598738,1361365897.155064,14776,-6192,-448,nan,0.000000
2,5,5,0,12408425,370541529,928336206090601359,1361365897.155064,15260,-4976,-1032,nan,0.000000
2,5,5,0,12408425,370541529,928336206090603980,1361365897.155064,15040,-5020,-2652,nan,0.000000
2,5,5,0,12408425,370541529,928336206090606601,1361365897.155064,14832,-3584,-3944,nan,0.000000
2,5,5,0,12408425,370541529,928336206090609222,1361365897.155064,15304,-2552,-4648,nan,0.000000
1,5,6,0,12489748,370622666,-505651187241238274,1361365897.155681,14072,-5048,-5552,nan,0.000000
1,5,6,0,12489748,370622666,-505651187241235653,1361365897.155681,13144,-6316,-6208,nan,0.000000
2,5,7,0,12489748,370622698,-505651187241233032,1361365897.157306,14896,-5716,-6780,nan,0.000000
2,5,7,0,12489748,370622698,-505651187241230411,1361365897.157306,15140,-5272,-5844,nan,0.000000
2,5,7,0,12489748,370622698,-505651187241227790,1361365897.157306,13924,-6280,-5748,nan,0.000000
2,5,7,0,12489748,370622698,-505651187241225169,1361365897.157306,13352,-5968,-4632,nan,0.000000
2,5,7,0,12489748,370622698,-505651187241222548,1361365897.157306,13992,-6556,-3184,nan,0.000000
2,5,8,0,12489748,370622729,-505651187241219927,1361365897.160976,17048,-5448,-1160,nan,0.000000
2,5,8,0,12489748,370622729,-505651187241217306,1361365897.160976,19288,-7168,-1216,nan,0.000000
2,5,8,0,12489748,370622729,-505651187241214685,1361365897.160976,17292,-7360,-724,nan,0.000000
2,5,8,0,12489748,370622729,-505651187241212064,1361365897.160976,13064,-5984,-100,nan,0.000000
2,5,8,0,12489748,370622729,-505651187241209443,1361365897.160976,10040,-6780,-56,nan,0.000000
2,5,9,0,12489748,370622761,-505651187241206822,1361365897.163266,13428,-5060,0,nan,0.000000
2,5,9,0,12489748,370622761,-505651187241204201,1361365897.163266,14832,-6116,2220,nan,0.000000
2,5,9,0,12489748,370622761,-505651187241201580,1361365897.163266,13348,-5140,2792,nan,0.000000
2,5,9,0,12489748,370622761,-505651187241198959,1361365897.163266,13196,-6556,4032,nan,0.000000
2,5,9,0,12489748,370622761,-505651187241196338,1361365897.163266,15196,-7248,4400,nan,0.000000
2,5,10,0,12489748,370622793,-505651187241193717,1361365897.165335,17252,-6468,404,nan,0.000000
2,5,10,0,12489748,370622793,-505651187241191096,1361365897.165335,17892,-8132,-5744,nan,0.000000
2,5,10,0,12489748,370622793,-505651187241188475,1361365897.165335,12840,-4600,-6204,nan,0.000000
2,5,10,0,12489748,370622793,-505651187241185854,1361365897.165335,13692,-4572,-5244,nan,0.000000
2,5,10,0,12489748,370622793,-505651187241183233,1361365897.165335,12892,-5140,-6312,nan,0.000000
2,5,11,0,12489748,370622824,-505651187241180612,1361365897.166902,13712,-7648,-4884,nan,0.000000
2,5,11,0,12489748,370622824,-505651187241177991,1361365897.166902,15688,-6952,-3404,nan,0.000000
2,5,11,0,12489748,370622824,-505651187241175370,1361365897.166902,14860,-4404,-3072,nan,0.000000
2,5,11,0,12489748,370622824,-505651187241172749,1361365897.166902,14668,-6880,-1392,nan,0.000000
2,5,11,0,12489748,370622824,-505651187241170128,1361365897.166902,14132,-5364,-2052,nan,0.000000
2,5,12,0,12489748,370622856,-505651187241167507,1361365897.169545,15364,-7328,-1200,nan,0.000000
2,5,12,0,12489748,370622856,-505651187241164886,1361365897.169545,15344,-3592,-672,nan,0.000000
2,5,12,0,12489748,370622856,-505651187241162265,1361365897.169545,15452,-4864,64,nan,0.000000
2,5,12,0,12489748,370622856,-505651187241159644,1361365897.169545,16528,-4904,1600,nan,0.000000
2,5,12,0,12489748,370622856,-505651187241157023,1361365897.169545,18332,-4220,-52,nan,0.000000
1,5,13,0,12571071,370866647,6989015914750103803,1361365897.171439,13908,-3472,-148,nan,0.000000
1,5,13,0,12571071,370866647,6989015914750106424,1361365897.171439,13932,-4380,412,nan,0.000000
2,5,14,0,12571071,370866679,6989015914750109045,1361365897.173305,14484,-4660,1088,nan,0.000000
2,5,14,0,12571071,370866679,6989015914750111666,1361365897.173305,14364,-4712,1504,nan,0.000000
2,5,14,0,12571071,370866679,6989015914750114287,1361365897.173305,14224,-2756,1944,nan,0.000000
2,5,14,0,12571071,370866679,6989015914750116908,1361365897.173305,15520,-5124,2028,nan,0.000000
2,5,14,0,12571071,370866679,6989015914750119529,1361365897.173305,16816,-3788,3372,nan,0.000000
2,5,15,0,12571071,370866711,6989015914750122150,1361365897.174804,18184,-3172,484,nan,0.000000
2,5,15,0,12571071,370866711,6989015914750124771,1361365897.174804,17020,-6980,-1500,nan,0.000000
2,5,15,0,12571071,370866711,6989015914750127392,1361365897.174804,12272,-2476,-4048,nan,0.000000
2,5,15,0,12571071,370866711,6989015914750130013,1361365897.174804,16500,-7876,-1236,nan,0.000000
2,5,15,0,12571071,370866711,6989015914750132634,1361365897.174804,14080,-2592,-2164,nan,0.000000
2,5,0,0,12571071,370866743,6989015914750135255,1361365897.176355,15184,-2940,-1424,nan,0.000000
2,5,0,0,12571071,370866743,6989015914750137876,1361365897.176355,15664,-4144,-1116,nan,0.000000
2,5,0,0,12571071,370866743,6989015914750140497,1361365897.176355,15256,-2424,-1112,nan,0.000000
2,5,0,0,12571071,370866743,6989015914750143118,1361365897.176355,16488,-2428,-360,nan,0.000000
2,5,0,0,12571071,370866743,6989015914750145739,1361365897.176355,17696,-1344,-360,nan,0.000000
2,5,1,0,12571071,370866775,6989015914750148360,1361365897.177323,18388,-1900,132,nan,0.000000
2,5,1,0,12571071,370866775,6989015914750150981,1361365897.177323,14124,-8672,-3780,nan,0.000000
2,5,1,0,12571071,370866775,6989015914750153602,1361365897.177323,12828,-8672,-1912,nan,0.000000
2,5,1,0,12571071,370866775,6989015914750156223,1361365897.177323,16768,-2284,-1112,nan,0.000000
2,5,1,0,12571071,370866775,6989015914750158844,1361365897.177323,15396,-3828,-496,nan,0.000000
2,5,2,0,12571071,370866807,6989015914750161465,1361365897.180067,14504,-5164,212,nan,0.000000
2,5,2,0,12571071,370866807,6989015914750164086,1361365897.180067,13552,-3884,608,nan,0.000000
2,5,2,0,12571071,370866807,6989015914750166707,1361365897.180067,14644,-3012,1008,nan,0.000000
2,5,2,0,12571071,370866807,6989015914750169328,1361365897.180067,15456,-4952,1548,nan,0.000000
2,5,2,0,12571071,370866807,6989015914750171949,1361365897.180067,17512,-1680,2312,nan,0.000000
2,5,3,0,12571071,370866839,6989015914750174570,1361365897.186528,18084,-3900,1240,nan,0.000000
2,5,3,0,12571071,370866839,6989015914750177191,1361365897.186528,16992,-8284,-1136,nan,0.000000
2,5,3,0,12571071,370866839,6989015914750179812,1361365897.186528,13160,-3172,-4276,nan,0.000000
2,5,3,0,12571071,370866839,6989015914750182433,1361365897.186528,15784,-8352,-1084,nan,0.000000
2,5,3,0,12571071,370866839,6989015914750185054,1361365897.186528,14172,-3564,-1988,nan,0.000000
1,5,4,0,12652394,370866871,-7999619033793898492,1361365897.187903,14500,-2680,-500,nan,0.000000
1,5,4,15,12652394,370866871,-7999619033793895871,1361365897.187903,15028,-3132,1256,nan,0.000000
2,5,5,15,12652394,370866903,-7999619033793893250,1361365897.188175,17208,-4084,580,nan,0.000000
2,5,5,15,12652394,370866903,-7999619033793890629,1361365897.188175,18904,-2112,1932,nan,0.000000
2,5,5,15,12652394,370866903,-7999619033793888008,1361365897.188175,17396,-7132,-1536,nan,0.000000
2,5,5,15,12652394,370866903,-7999619033793885387,1361365897.188175,11880,-6776,-1808,nan,0.000000
2,5,5,15,12652394,370866903,-7999619033793882766,1361365897.188175,14976,-4612,-1088,nan,0.000000
2,5,6,15,12652394,370866935,-7999619033793880145,1361365897.188532,16448,-3984,724,nan,0.000000
2,5,6,15,12652394,370866935,-7999619033793877524,1361365897.188532,14736,-4372,1448,nan,0.000000
2,5,6,15,12652394,370866935,-7999619033793874903,1361365897.188532,13940,-3400,1340,nan,0.000000
2,5,6,15,12652394,370866935,-7999619033793872282,1361365897.188532,14792,-2524,2296,nan,0.000000
2,5,6,15,12652394,370866935,-7999619033793869661,1361365897.188532,14836,-2788,1564,nan,0.000000
2,5,7,15,12652394,370866967,-7999619033793867040,1361365897.188860,16536,-3080,3020,nan,0.000000
2,5,7,15,12652394,370866967,-7999619033793864419,1361365897.188860,18132,-1296,3192,nan,0.000000
2,5,7,15,12652394,370866967,-7999619033793861798,1361365897.188860,18672,-5908,1472,nan,0.000000
2,5,7,15,12652394,370866967,-7999619033793859177,1361365897.188860,13996,-2452,-1140,nan,0.000000
2,5,7,15,12652394,370866967,-7999619033793856556,1361365897.188860,14700,-5016,-1240,nan,0.000000
2,5,8,15,12652394,370866999,-7999619033793853935,1361365897.189160,14928,-5180,612,nan,0.000000
2,5,8,15,12652394,370866999,-7999619033793851314,1361365897.189160,15024,-1452,-956,nan,0.000000
2,5,8,15,12652394,370866999,-7999619033793848693,1361365897.189160,15664,-2216,-244,nan,0.000000
2,5,8,15,12652394,370866999,-7999619033793846072,1361365897.189160,15328,-2476,524,nan,0.000000
2,5,8,15,12652394,370866999,-7999619033793843451,1361365897.189160,15336,-2776,728,nan,0.000000
2,5,9,15,12652394,370867031,-7999619033793840830,1361365897.189460,17960,-2184,1640,nan,0.000000
2,5,9,15,12652394,370867031,-7999619033793838209,1361365897.189460,18256,-1844,2000,nan,0.000000
2,5,9,15,12652394,370867031,-7999619033793835588,1361365897.189460,16856,-6120,-88,nan,0.000000
2,5,9,15,12652394,370867031,-7999619033793832967,1361365897.189460,12304,-6940,-924,nan,0.000000
2,5,9,15,12652394,370867031,-7999619033793830346,1361365897.189460,15380,-5892,484,nan,0.000000
2,5,10,15,12652394,370867063,-7999619033793827725,1361365897.189759,15880,-2840,1368,nan,0.000000
2,5,10,15,12652394,370867063,-7999619033793825104,1361365897.189759,13436,-4724,1604,nan,0.000000
2,5,10,15,12652394,370867063,-7999619033793822483,1361365897.189759,15100,-3728,2152,nan,0.000000
2,5,10,15,12652394,370867063,-7999619033793819862,1361365897.189759,14676,-2444,2440,nan,0.000000
2,5,10,15,12652394,370867063,-7999619033793817241,1361365897.189759,15736,-3508,2456,nan,0.000000
1,5,11,0,12733718,370867095,4901760196058306565,1361365897.190094,17944,-2952,3360,nan,0.000000
1,5,11,0,12733718,370867095,4901760196058309186,1361365897.190094,16972,-4976,2620,nan,0.000000
2,5,12,0,12733718,370867127,4901760196058311807,1361365897.190280,15824,-4452,1216,nan,0.000000
2,5,12,0,12733718,370867127,4901760196058314428,1361365897.190280,12756,-2776,-1976,nan,0.000000
2,5,12,0,12733718,370867127,4901760196058317049,1361365897.190280,16776,-6340,272,nan,0.000000
2,5,12,0,12733718,370867127,4901760196058319670,1361365897.190280,14632,-2596,512,nan,0.000000
2,5,12,0,12733718,370867127,4901760196058322291,1361365897.190280,15016,-2776,84,nan,0.000000
2,5,13,0,12733718,370867159,4901760196058324912,1361365897.190579,15248,-2828,784,nan,0.000000
2,5,13,0,12733718,370867159,4901760196058327533,1361365897.190579,15840,-3200,1768,nan,0.000000
2,5,13,0,12733718,370867159,4901760196058330154,1361365897.190579,16036,-2144,964,nan,0.000000
2,5,13,0,12733718,370867159,4901760196058332775,1361365897.190579,17912,88,1736,nan,0.000000
2,5,13,0,12733718,370867159,4901760196058335396,1361365897.190579,18172,-4308,1192,nan,0.000000
2,5,14,0,12733718,370867191,4901760196058338017,1361365897.190879,14252,-6776,260,nan,0.000000
2,5,14,0,12733718,370867191,4901760196058340638,1361365897.190879,11856,-7632,720,nan,0.000000
2,5,14,0,12733718,370867191,4901760196058343259,1361365897.190879,18164,-4388,2040,nan,0.000000
2,5,14,0,12733718,370867191,4901760196058345880,1361365897.190879,14480,-1684,1572,nan,0.000000
2,5,14,0,12733718,370867191,4901760196058348501,1361365897.190879,14580,-4652,2916,nan,0.000000
2,5,15,0,12733718,370867223,4901760196058351122,1361365897.191180,15736,-1792,2540,nan,0.000000
2,5,15,0,12733718,370867223,4901760196058353743,1361365897.191180,15036,-3468,3464,nan,0.000000
2,5,15,0,12733718,370867223,4901760196058356364,1361365897.191180,14984,-5140,3680,nan,0.000000
2,5,15,0,12733718,370867223,4901760196058358985,1361365897.191180,16736,-4448,4764,nan,0.000000
2,5,15,0,12733718,370867223,4901760196058361606,1361365897.191180,16588,-4584,2516,nan,0.000000
2,5,0,0,12733718,370867255,4901760196058364227,1361365897.191479,16752,-8160,420,nan,0.000000
2,5,0,0,12733718,370867255,4901760196058366848,1361365897.191479,13108,-2680,-2356,nan,0.000000
2,5,0,0,12733718,370867255,4901760196058369469,1361365897.191479,15436,-5032,-908,nan,0.000000
2,5,0,0,12733718,370867255,4901760196058372090,1361365897.191479,14212,-4056,-1664,nan,0.000000
2,5,0,0,12733718,370867255,4901760196058374711,1361365897.191479,16448,-2664,-536,nan,0.000000
2,5,1,0,12733718,370867287,4901760196058377332,1361365899.632276,14988,-2988,-1076,nan,0.000000
2,5,1,0,12733718,370867287,4901760196058379953,1361365899.632276,16496,-3180,-1008,nan,0.000000
2,5,1,0,12733718,370867287,4901760196058382574,1361365899.632276,13560,-2000,-452,nan,0.000000
2,5,1,0,12733718,370867287,4901760196058385195,1361365899.632276,17836,-728,-76,nan,0.000000
2,5,1,0,12733718,370867287,4901760196058387816,1361365899.632276,17356,-2592,224,nan,0.000000
1,5,2,0,12815041,370947976,1224016972019191035,1361365899.633592,15820,-6216,-1576,nan,0.000000
1,5,2,0,12815041,370947976,1224016972019193656,1361365899.633592,11420,-8724,-1924,nan,0.000000
2,5,3,0,12815041,370948008,1224016972019196277,1361365899.634210,15924,-6008,-1060,nan,0.000000
2,5,3,0,12815041,370948008,1224016972019198898,1361365899.634210,16264,-3180,840,nan,0.000000
2,5,3,0,12815041,370948008,1224016972019201519,1361365899.634210,12568,-5724,116,nan,0.000000
2,5,3,0,12815041,370948008,1224016972019204140,1361365899.634210,15052,-3156,1120,nan,0.000000
2,5,3,0,12815041,370948008,1224016972019206761,1361365899.634210,14988,-2992,1912,nan,0.000000
2,5,4,0,12815041,370948040,1224016972019209382,1361365899.635092,15580,-3864,2104,nan,0.000000
2,5,4,0,12815041,370948040,1224016972019212003,1361365899.635092,17168,-3412,2532,nan,0.000000
2,5,4,0,12815041,370948040,1224016972019214624,1361365899.635092,18008,-4036,1464,nan,0.000000
2,5,4,0,12815041,370948040,1224016972019217245,1361365899.635092,16860,-8120,-860,nan,0.000000
2,5,4,0,12815041,370948040,1224016972019219866,1361365899.635092,12040,-3708,-3348,nan,0.000000
2,5,5,0,12815041,370948072,1224016972019222487,1361365899.640001,15416,-8808,-1084,nan,0.000000
2,5,5,0,12815041,370948072,1224016972019225108,1361365899.640001,14396,-3364,-2132,nan,0.000000
2,5,5,0,12815041,370948072,1224016972019227729,1361365899.640001,15232,-2456,-1116,nan,0.000000
2,5,5,0,12815041,370948072,1224016972019230350,1361365899.640001,14360,-3588,-996,nan,0.000000
2,5,5,0,12815041,370948072,1224016972019232971,1361365899.640001,15332,-2760,128,nan,0.000000
2,5,6,0,12815041,370948104,1224016972019235592,1361365899.643628,16412,-1428,244,nan,0.000000
2,5,6,0,12815041,370948104,1224016972019238213,1361365899.643628,18508,-864,568,nan,0.000000
2,5,6,0,12815041,370948104,1224016972019240834,1361365899.643628,18384,-3440,1248,nan,0.000000
2,5,6,0,12815041,370948104,1224016972019243455,1361365899.643628,15220,-7632,-1252,nan,0.000000
2,5,6,0,12815041,370948104,1224016972019246076,1361365899.643628,11940,-7952,-952,nan,0.000000
2,5,7,0,12815041,370948135,1224016972019248697,1361365899.648232,17136,-3724,-140,nan,0.000000
2,5,7,0,12815041,370948135,1224016972019251318,1361365899.648232,14532,-4340,736,nan,0.000000
2,5,7,0,12815041,370948135,1224016972019253939,1361365899.648232,13500,-6336,1308,nan,0.000000
2,5,7,0,12815041,370948135,1224016972019256560,1361365899.648232,15624,-2452,1080,nan,0.000000
2,5,7,0,12815041,370948135,1224016972019259181,1361365899.648232,14380,-3436,1288,nan,0.000000
2,5,8,0,12815041,370948168,1224016972019261802,1361365902.114239,15092,-3296,732,nan,0.000000
2,5,8,0,12815041,370948168,1224016972019264423,1361365902.114239,16996,-4452,1512,nan,0.000000
2,5,8,0,12815041,370948168,1224016972019267044,1361365902.114239,18868,-3304,1788,nan,0.000000
2,5,8,0,12815041,370948168,1224016972019269665,1361365902.114239,17780,-8488,-876,nan,0.000000
2,5,8,0,12815041,370948168,1224016972019272286,1361365902.114239,11808,-5364,-2932,nan,0.000000
1,5,9,0,12896365,371029303,-1727802334328464382,1361365902.115373,16332,-6868,-812,nan,0.000000
1,5,9,0,12896365,371029303,-1727802334328461761,1361365902.115373,14256,-1784,-1580,nan,0.000000
2,5,10,0,12896365,371029335,-1727802334328459140,1361365902.115906,14760,-2660,-1012,nan,0.000000
2,5,10,0,12896365,371029335,-1727802334328456519,1361365902.115906,15332,-2504,-964,nan,0.000000
2,5,10,0,12896365,371029335,-1727802334328453898,1361365902.115906,15296,-3248,-392,nan,0.000000
2,5,10,0,12896365,371029335,-1727802334328451277,1361365902.115906,17860,-1464,420,nan,0.000000
2,5,10,0,12896365,371029335,-1727802334328448656,1361365902.115906,18672,-2772,880,nan,0.000000
2,5,11,0,12896365,371029367,-1727802334328446035,1361365902.116770,16988,-5912,-1232,nan,0.000000
2,5,11,0,12896365,371029367,-1727802334328443414,1361365902.116770,12552,-7732,-1524,nan,0.000000
2,5,11,0,12896365,371029367,-1727802334328440793,1361365902.116770,14944,-4676,-940,nan,0.000000
2,5,11,0,12896365,371029367,-1727802334328438172,1361365902.116770,16612,-2188,-108,nan,0.000000
2,5,11,0,12896365,371029367,-1727802334328435551,1361365902.116770,14852,-5044,1192,nan,0.000000
2,5,12,0,12896365,371029399,-1727802334328432930,1361365902.117816,14444,-2772,1296,nan,0.000000
2,5,12,0,12896365,371029399,-1727802334328430309,1361365902.117816,14648,-1864,516,nan,0.000000
2,5,12,0,12896365,371029399,-1727802334328427688,1361365902.117816,14980,-4504,1296,nan,0.000000
2,5,12,0,12896365,371029399,-1727802334328425067,1361365902.117816,15724,-3820,1164,nan,0.000000
2,5,12,0,12896365,371029399,-1727802334328422446,1361365902.117816,18176,-2056,2320,nan,0.000000
2,5,13,0,12896365,371029431,-1727802334328419825,1361365902.118709,17300,-5048,308,nan,0.000000
2,5,13,0,12896365,371029431,-1727802334328417204,1361365902.118709,15868,-7228,-2372,nan,0.000000
2,5,13,0,12896365,371029431,-1727802334328414583,1361365902.118709,13760,-3116,-2680,nan,0.000000
2,5,13,0,12896365,371029431,-1727802334328411962,1361365902.118709,15888,-6772,292,nan,0.000000
2,5,13,0,12896365,371029431,-1727802334328409341,1361365902.118709,12976,-2564,-1260,nan,0.000000
2,5,14,0,12896365,371029463,-1727802334328406720,1361365902.119871,15592,-1492,-468,nan,0.000000
2,5,14,0,12896365,371029463,-1727802334328404099,1361365902.119871,15604,-2948,-524,nan,0.000000
2,5,14,0,12896365,371029463,-1727802334328401478,1361365902.119871,16088,-2936,584,nan,0.000000
2,5,14,0,12896365,371029463,-1727802334328398857,1361365902.119871,17660,-2708,1068,nan,0.000000
2,5,14,0,12896365,371029463,-1727802334328396236,1361365902.119871,18432,-3216,1392,nan,0.000000
2,5,15,0,12896365,371029495,-1727802334328393615,1361365904.596133,15152,-6136,-1776,nan,0.000000
2,5,15,0,12896365,371029495,-1727802334328390994,1361365904.596133,12528,-8804,-832,nan,0.000000
2,5,15,0,12896365,371029495,-1727802334328388373,1361365904.596133,16200,-3152,-688,nan,0.000000
2,5,15,0,12896365,371029495,-1727802334328385752,1361365904.596133,15084,-4540,1572,nan,0.000000
2,5,15,0,12896365,371029495,-1727802334328383131,1361365904.596133,12976,-4580,1092,nan,0.000000
1,5,0,0,12977688,371110629,-4540581847264915207,1361365904.597275,15340,-3384,1260,nan,0.000000
1,5,0,0,12977688,371110629,-4540581847264912586,1361365904.597275,16860,-4164,1872,nan,0.000000
2,5,1,0,12977688,371110661,-4540581847264909965,1361365904.597966,18360,-2740,2496,nan,0.000000
2,5,1,0,12977688,371110661,-4540581847264907344,1361365904.597966,17532,-6172,-608,nan,0.000000
2,5,1,0,12977688,371110661,-4540581847264904723,1361365904.597966,13396,-5772,-2508,nan,0.000000
2,5,1,0,12977688,371110661,-4540581847264902102,1361365904.597966,15692,-4076,-856,nan,0.000000
2,5,1,0,12977688,371110661,-4540581847264899481,1361365904.597966,13640,-5860,-392,nan,0.000000
2,5,2,0,12977688,371110693,-4540581847264896860,1361365904.598813,15200,-1800,-896,nan,0.000000
2,5,2,0,12977688,371110693,-4540581847264894239,1361365904.598813,15112,-2100,-528,nan,0.000000
2,5,2,0,12977688,371110693,-4540581847264891618,1361365904.598813,15228,-2792,440,nan,0.000000
2,5,2,0,12977688,371110693,-4540581847264888997,1361365904.598813,15996,-3272,756,nan,0.000000
2,5,2,0,12977688,371110693,-4540581847264886376,1361365904.598813,17956,-2932,1692,nan,0.000000
2,5,3,0,12977688,371110725,-4540581847264883755,1361365904.599881,18672,-4136,976,nan,0.000000
2,5,3,0,12977688,371110725,-4540581847264881134,1361365904.599881,14896,-7464,-2784,nan,0.000000
2,5,3,0,12977688,371110725,-4540581847264878513,1361365904.599881,12176,-6644,-1860,nan,0.000000
2,5,3,0,12977688,371110725,-4540581847264875892,1361365904.599881,15996,-3940,-1508,nan,0.000000
2,5,3,0,12977688,371110725,-4540581847264873271,1361365904.599881,15648,-4976,100,nan,0.000000
2,5,4,0,12977688,371110757,-4540581847264870650,1361365904.600406,13980,-4576,556,nan,0.000000
2,5,4,0,12977688,371110757,-4540581847264868029,1361365904.600406,14604,-3308,964,nan,0.000000
2,5,4,0,12977688,371110757,-4540581847264865408,1361365904.600406,14472,-3844,1088,nan,0.000000
2,5,4,0,12977688,371110757,-4540581847264862787,1361365904.600406,15240,-3728,1260,nan,0.000000
2,5,4,0,12977688,371110757,-4540581847264860166,1361365904.600406,16996,-2444,2908,nan,0.000000
2,5,5,0,12977688,371110789,-4540581847264857545,1361365904.601802,19268,-3744,388,nan,0.000000
2,5,5,0,12977688,371110789,-4540581847264854924,1361365904.601802,16692,-6864,-304,nan,0.000000
2,5,5,0,12977688,371110789,-4540581847264852303,1361365904.601802,12140,-2984,-2972,nan,0.000000
2,5,5,0,12977688,371110789,-4540581847264849682,1361365904.601802,17464,-6628,-476,nan,0.000000
2,5,5,0,12977688,371110789,-4540581847264847061,1361365904.601802,12692,-4012,-1628,nan,0.000000
1,5,7,0,13059010,371517259,8429846753078415614,1361365917.005924,13312,-6632,-1800,nan,0.000000
1,5,7,0,13059010,371517259,8429846753078418235,1361365917.005924,11432,-6084,-2036,nan,0.000000
2,5,8,0,13059010,371517291,8429846753078420856,1361365917.007521,17728,-4652,-800,nan,0.000000
2,5,8,0,13059010,371517291,8429846753078423477,1361365917.007521,15984,-3392,660,nan,0.000000
2,5,8,0,13059010,371517291,8429846753078426098,1361365917.007521,13252,-5088,528,nan,0.000000
2,5,8,0,13059010,371517291,8429846753078428719,1361365917.007521,14928,-2176,1160,nan,0.000000
2,5,8,0,13059010,371517291,8429846753078431340,1361365917.007521,14508,-4028,1424,nan,0.000000
2,5,9,0,13059010,371517323,8429846753078433961,1361365917.008856,16284,-4612,1920,nan,0.000000
2,5,9,0,13059010,371517323,8429846753078436582,1361365917.008856,18856,-2720,2096,nan,0.000000
2,5,9,0,13059010,371517323,8429846753078439203,1361365917.008856,17048,-6856,-1164,nan,0.000000
2,5,9,0,13059010,371517323,8429846753078441824,1361365917.008856,13796,-5164,-2464,nan,0.000000
2,5,9,0,13059010,371517323,8429846753078444445,1361365917.008856,14688,-3384,-3016,nan,0.000000
2,5,10,0,13059010,371517355,8429846753078447066,1361365917.009644,15232,-6584,-524,nan,0.000000
2,5,10,0,13059010,371517355,8429846753078449687,1361365917.009644,13732,-1724,-1656,nan,0.000000
2,5,10,0,13059010,371517355,8429846753078452308,1361365917.009644,14956,-2704,-740,nan,0.000000
2,5,10,0,13059010,371517355,8429846753078454929,1361365917.009644,15500,-3528,-140,nan,0.000000
2,5,10,0,13059010,371517355,8429846753078457550,1361365917.009644,15780,-2604,472,nan,0.000000
2,5,11,0,13059010,371517387,8429846753078460171,1361365917.010334,18248,-1948,888,nan,0.000000
2,5,11,0,13059010,371517387,8429846753078462792,1361365917.010334,18640,-1820,984,nan,0.000000
2,5,11,0,13059010,371517387,8429846753078465413,1361365917.010334,16064,-6816,-2304,nan,0.000000
2,5,11,0,13059010,371517387,8429846753078468034,1361365917.010334,11916,-7052,-1972,nan,0.000000
2,5,11,0,13059010,371517387,8429846753078470655,1361365917.010334,15388,-3988,-1720,nan,0.000000
2,5,12,0,13059010,371517419,8429846753078473276,1361365917.011606,17208,-2568,240,nan,0.000000
2,5,12,0,13059010,371517419,8429846753078475897,1361365917.011606,14128,-4528,412,nan,0.000000
2,5,12,0,13059010,371517419,8429846753078478518,1361365917.011606,14088,-3260,428,nan,0.000000
2,5,12,0,13059010,371517419,8429846753078481139,1361365917.011606,14008,-5180,-2624,nan,0.000000
2,5,12,0,13059010,371517419,8429846753078483760,1361365917.011606,19120,-3804,-304,nan,0.000000
2,5,13,0,13059010,371517450,8429846753078486381,1361365917.012458,18472,-2988,-1332,nan,0.000000
2,5,13,0,13059010,371517450,8429846753078489002,1361365917.012458,17760,-4504,-1528,nan,0.000000
2,5,13,0,13059010,371517450,8429846753078491623,1361365917.012458,16408,-8004,-2780,nan,0.000000
2,5,13,0,13059010,371517450,8429846753078494244,1361365917.012458,11068,-2680,-4408,nan,0.000000
2,5,13,0,13059010,371517450,8429846753078496865,1361365917.012458,16216,-7084,-1644,nan,0.000000
1,5,14,0,13140333,371517482,646944869507779834,1361365917.013221,14112,-1532,-2160,nan,0.000000
1,5,14,15,13140333,371517482,646944869507782455,1361365917.013221,15116,-3364,-1320,nan,0.000000
2,5,15,15,13140333,371517514,646944869507785076,1361365917.013828,15676,-4052,-728,nan,0.000000
2,5,15,15,13140333,371517514,646944869507787697,1361365917.013828,15828,-2936,-512,nan,0.000000
2,5,15,15,13140333,371517514,646944869507790318,1361365917.013828,18452,-4180,336,nan,0.000000
2,5,15,15,13140333,371517514,646944869507792939,1361365917.013828,18500,-4452,-828,nan,0.000000
2,5,15,15,13140333,371517514,646944869507795560,1361365917.013828,12556,-7448,-3184,nan,0.000000
2,5,0,15,13140333,371517547,646944869507798181,1361365917.014453,11444,-7428,-2516,nan,0.000000
2,5,0,15,13140333,371517547,646944869507800802,1361365917.014453,17792,-4776,-1732,nan,0.000000
2,5,0,15,13140333,371517547,646944869507803423,1361365917.014453,15116,-3532,-112,nan,0.000000
2,5,0,15,13140333,371517547,646944869507806044,1361365917.014453,13500,-5892,-252,nan,0.000000
2,5,0,15,13140333,371517547,646944869507808665,1361365917.014453,14584,-3700,412,nan,0.000000
2,5,1,15,13140333,371517578,646944869507811286,1361365917.015455,15180,-4620,808,nan,0.000000
2,5,1,15,13140333,371517578,646944869507813907,1361365917.015455,16396,-4828,1136,nan,0.000000
2,5,1,15,13140333,371517578,646944869507816528,1361365917.015455,19080,-2832,1840,nan,0.000000
2,5,1,15,13140333,371517578,646944869507819149,1361365917.015455,17276,-7116,-1044,nan,0.000000
2,5,1,15,13140333,371517578,646944869507821770,1361365917.015455,12624,-5568,-3068,nan,0.000000
2,5,2,15,13140333,371517611,646944869507824391,1361365917.016281,15092,-3132,-2392,nan,0.000000
2,5,2,15,13140333,371517611,646944869507827012,1361365917.016281,15476,-5848,-548,nan,0.000000
2,5,2,15,13140333,371517611,646944869507829633,1361365917.016281,14176,-944,-1744,nan,0.000000
2,5,2,15,13140333,371517611,646944869507832254,1361365917.016281,15296,-2448,-1024,nan,0.000000
2,5,2,15,13140333,371517611,646944869507834875,1361365917.016281,15112,-2044,-144,nan,0.000000
2,5,3,15,13140333,371517642,646944869507837496,1361365917.017460,15264,-2512,392,nan,0.000000
2,5,3,15,13140333,371517642,646944869507840117,1361365917.017460,17824,-2828,1932,nan,0.000000
2,5,3,15,13140333,371517642,646944869507842738,1361365917.017460,18840,-2336,2400,nan,0.000000
2,5,3,15,13140333,371517642,646944869507845359,1361365917.017460,16880,-4304,-2040,nan,0.000000
2,5,3,15,13140333,371517642,646944869507847980,1361365917.017460,12180,-8500,-2008,nan,0.000000
2,5,4,15,13140333,371517675,646944869507850601,1361365917.018218,13892,-4664,-1964,nan,0.000000
2,5,4,15,13140333,371517675,646944869507853222,1361365917.018218,17772,-2960,-832,nan,0.000000
2,5,4,15,13140333,371517675,646944869507855843,1361365917.018218,14928,-4164,-148,nan,0.000000
2,5,4,15,13140333,371517675,646944869507858464,1361365917.018218,12728,-6012,484,nan,0.000000
2,5,4,15,13140333,371517675,646944869507861085,1361365917.018218,14304,-3824,732,nan,0.000000
1,5,5,0,13221656,371517706,-4540630129205488392,1361365917.019517,16864,-3772,504,nan,0.000000
1,5,5,0,13221656,371517706,-4540630129205485771,1361365917.019517,18372,-3640,1348,nan,0.000000
2,5,6,0,13221656,371517739,-4540630129205483150,1361365917.019945,16696,-5688,-1132,nan,0.000000
2,5,6,0,13221656,371517739,-4540630129205480529,1361365917.019945,16076,-6988,-2304,nan,0.000000
2,5,6,0,13221656,371517739,-4540630129205477908,1361365917.019945,11520,-1432,-4776,nan,0.000000
2,5,6,0,13221656,371517739,-4540630129205475287,1361365917.019945,17060,-7596,-2140,nan,0.000000
2,5,6,0,13221656,371517739,-4540630129205472666,1361365917.019945,13268,-4212,-2292,nan,0.000000
2,5,7,0,13221656,371517770,-4540630129205470045,1361365917.021474,14692,-1224,-2612,nan,0.000000
2,5,7,0,13221656,371517770,-4540630129205467424,1361365917.021474,15396,-3780,-1328,nan,0.000000
2,5,7,0,13221656,371517770,-4540630129205464803,1361365917.021474,15584,-2472,-344,nan,0.000000
2,5,7,0,13221656,371517770,-4540630129205462182,1361365917.021474,16968,-2144,56,nan,0.000000
2,5,7,0,13221656,371517770,-4540630129205459561,1361365917.021474,18092,-2028,700,nan,0.000000
2,5,8,0,13221656,371517803,-4540630129205456940,1361365917.022012,17544,-3348,-1016,nan,0.000000
2,5,8,0,13221656,371517803,-4540630129205454319,1361365917.022012,13728,-8732,-2296,nan,0.000000
2,5,8,0,13221656,371517803,-4540630129205451698,1361365917.022012,13296,-5624,-1844,nan,0.000000
2,5,8,0,13221656,371517803,-4540630129205449077,1361365917.022012,16520,-3300,-2156,nan,0.000000
2,5,8,0,13221656,371517803,-4540630129205446456,1361365917.022012,15852,-4088,-612,nan,0.000000
2,5,9,0,13221656,371517834,-4540630129205443835,1361365917.023477,13420,-4908,-316,nan,0.000000
2,5,9,0,13221656,371517834,-4540630129205441214,1361365917.023477,14616,-2732,-84,nan,0.000000
2,5,9,0,13221656,371517834,-4540630129205438593,1361365917.023477,15924,-3996,132,nan,0.000000
2,5,9,0,13221656,371517834,-4540630129205435972,1361365917.023477,16928,-4552,664,nan,0.000000
2,5,9,0,13221656,371517834,-4540630129205433351,1361365917.023477,17668,-4072,1108,nan,0.000000
2,5,10,0,13221656,371517867,-4540630129205430730,1361365917.024001,16628,-5864,-716,nan,0.000000
2,5,10,0,13221656,371517867,-4540630129205428109,1361365917.024001,13000,-2612,-2804,nan,0.000000
2,5,10,0,13221656,371517867,-4540630129205425488,1361365917.024001,15056,-3312,-3312,nan,0.000000
2,5,10,0,13221656,371517867,-4540630129205422867,1361365917.024001,16340,-6264,368,nan,0.000000
2,5,10,0,13221656,371517867,-4540630129205420246,1361365917.024001,13912,712,-2144,nan,0.000000
2,5,11,0,13221656,371517898,-4540630129205417625,1361365917.025479,15416,-2872,-1136,nan,0.000000
2,5,11,0,13221656,371517898,-4540630129205415004,1361365917.025479,15580,-2592,-272,nan,0.000000
2,5,11,0,13221656,371517898,-4540630129205412383,1361365917.025479,15812,-2148,-384,nan,0.000000
2,5,11,0,13221656,371517898,-4540630129205409762,1361365917.025479,18736,-1924,648,nan,0.000000
2,5,11,0,13221656,371517898,-4540630129205407141,1361365917.025479,18572,-2860,220,nan,0.000000
1,5,12,0,13302977,371517931,-1081179513955774213,1361365917.025892,12760,-6676,-2440,nan,0.000000
1,5,12,0,13302977,371517931,-1081179513955771592,1361365917.025892,16912,-3168,-2064,nan,0.000000
2,5,13,0,13302977,371517962,-1081179513955768971,1361365917.027488,15856,-2312,-184,nan,0.000000
2,5,13,0,13302977,371517962,-1081179513955766350,1361365917.027488,13844,-5576,316,nan,0.000000
2,5,13,0,13302977,371517962,-1081179513955763729,1361365917.027488,14036,-2512,212,nan,0.000000
2,5,13,0,13302977,371517962,-1081179513955761108,1361365917.027488,15056,-4096,648,nan,0.000000
2,5,13,0,13302977,371517962,-1081179513955758487,1361365917.027488,16544,-4652,1096,nan,0.000000
2,5,14,0,13302977,371517995,-1081179513955755866,1361365917.028079,18604,-2444,908,nan,0.000000
2,5,14,0,13302977,371517995,-1081179513955753245,1361365917.028079,17668,-6628,-1512,nan,0.000000
2,5,14,0,13302977,371517995,-1081179513955750624,1361365917.028079,13528,-4504,-2540,nan,0.000000
2,5,14,0,13302977,371517995,-1081179513955748003,1361365917.028079,13920,-4516,-3820,nan,0.000000
2,5,14,0,13302977,371517995,-1081179513955745382,1361365917.028079,15320,-8320,-944,nan,0.000000
2,5,15,0,13302977,371518026,-1081179513955742761,1361365917.029473,13600,-1868,-2168,nan,0.000000
2,5,15,0,13302977,371518026,-1081179513955740140,1361365917.029473,14896,-3376,-1148,nan,0.000000
2,5,15,0,13302977,371518026,-1081179513955737519,1361365917.029473,15152,-3368,-572,nan,0.000000
2,5,15,0,13302977,371518026,-1081179513955734898,1361365917.029473,15588,-2500,-212,nan,0.000000
2,5,15,0,13302977,371518026,-1081179513955732277,1361365917.029473,17896,-2424,808,nan,0.000000
2,5,0,0,13302977,371518058,-1081179513955729656,1361365917.030193,17660,-2864,592,nan,0.000000
2,5,0,0,13302977,371518058,-1081179513955727035,1361365917.030193,17288,-7336,-1184,nan,0.000000
2,5,0,0,13302977,371518058,-1081179513955724414,1361365917.030193,12968,-8288,-2236,nan,0.000000
2,5,0,0,13302977,371518058,-1081179513955721793,1361365917.030193,13528,-6628,-3200,nan,0.000000
2,5,0,0,13302977,371518058,-1081179513955719172,1361365917.030193,16484,-4168,-1608,nan,0.000000
2,5,1,0,13302977,371518090,-1081179513955716551,1361365917.031462,14592,-5060,368,nan,0.000000
2,5,1,0,13302977,371518090,-1081179513955713930,1361365917.031462,13652,-3664,220,nan,0.000000
2,5,1,0,13302977,371518090,-1081179513955711309,1361365917.031462,14496,-3204,936,nan,0.000000
2,5,1,0,13302977,371518090,-1081179513955708688,1361365917.031462,15484,-3632,256,nan,0.000000
2,5,1,0,13302977,371518090,-1081179513955706067,1361365917.031462,16560,-4700,1220,nan,0.000000
2,5,2,0,13302977,371518122,-1081179513955703446,1361365917.031861,17976,-4632,1324,nan,0.000000
2,5,2,0,13302977,371518122,-1081179513955700825,1361365917.031861,17096,-9412,-1880,nan,0.000000
2,5,2,0,13302977,371518122,-1081179513955698204,1361365917.031861,12284,-5028,-3700,nan,0.000000
2,5,2,0,13302977,371518122,-1081179513955695583,1361365917.031861,13808,-7264,-3488,nan,0.000000
2,5,2,0,13302977,371518122,-1081179513955692962,1361365917.031861,15196,-7848,-1928,nan,0.000000
1,5,3,0,13384298,371518154,-6271195566458131451,1361365917.033480,14960,-3372,-1088,nan,0.000000
1,5,3,0,13384298,371518154,-6271195566458128830,1361365917.033480,15624,-2108,-664,nan,0.000000
2,5,4,0,13384298,371518186,-6271195566458126209,1361365917.035595,14684,-3424,8,nan,0.000000
2,5,4,0,13384298,371518186,-6271195566458123588,1361365917.035595,17676,-1696,556,nan,0.000000
2,5,4,0,13384298,371518186,-6271195566458120967,1361365917.035595,17952,-2744,1252,nan,0.000000
2,5,4,0,13384298,371518186,-6271195566458118346,1361365917.035595,16780,-6012,-956,nan,0.000000
2,5,4,0,13384298,371518186,-6271195566458115725,1361365917.035595,12520,-7660,-2616,nan,0.000000
2,5,5,0,13384298,371518218,-6271195566458113104,1361365917.036189,13116,-8112,-1908,nan,0.000000
2,5,5,0,13384298,371518218,-6271195566458110483,1361365917.036189,18016,-3412,-1060,nan,0.000000
2,5,5,0,13384298,371518218,-6271195566458107862,1361365917.036189,13956,-4656,-348,nan,0.000000
2,5,5,0,13384298,371518218,-6271195566458105241,1361365917.036189,14212,-4700,348,nan,0.000000
2,5,5,0,13384298,371518218,-6271195566458102620,1361365917.036189,15336,-3000,760,nan,0.000000
2,5,6,0,13384298,371518250,-6271195566458099999,1361365917.036566,14548,-4788,184,nan,0.000000
2,5,6,0,13384298,371518250,-6271195566458097378,1361365917.036566,15980,-3164,300,nan,0.000000
2,5,6,0,13384298,371518250,-6271195566458094757,1361365917.036566,18340,-4276,1528,nan,0.000000
2,5,6,0,13384298,371518250,-6271195566458092136,1361365917.036566,16680,-4960,-728,nan,0.000000
2,5,6,0,13384298,371518250,-6271195566458089515,1361365917.036566,16468,-8712,-2900,nan,0.000000
2,5,7,0,13384298,371518282,-6271195566458086894,1361365917.037497,12152,-3572,-4700,nan,0.000000
2,5,7,0,13384298,371518282,-6271195566458084273,1361365917.037497,15688,-6612,-2688,nan,0.000000
2,5,7,0,13384298,371518282,-6271195566458081652,1361365917.037497,13272,-6368,-2440,nan,0.000000
2,5,7,0,13384298,371518282,-6271195566458079031,1361365917.037497,14916,-1624,-1792,nan,0.000000
2,5,7,0,13384298,371518282,-6271195566458076410,1361365917.037497,15468,-2592,-1644,nan,0.000000
2,5,8,0,13384298,371518314,-6271195566458073789,1361365917.038031,15248,-2972,-992,nan,0.000000
2,5,8,0,13384298,371518314,-6271195566458071168,1361365917.038031,15744,-3668,-684,nan,0.000000
2,5,8,0,13384298,371518314,-6271195566458068547,1361365917.038031,18012,-2976,700,nan,0.000000
2,5,8,0,13384298,371518314,-6271195566458065926,1361365917.038031,17960,-4340,52,nan,0.000000
2,5,8,0,13384298,371518314,-6271195566458063305,1361365917.038031,14472,-8168,-2992,nan,0.000000
2,5,9,0,13384298,371518346,-6271195566458060684,1361365919.491823,12016,-8488,-2272,nan,0.000000
2,5,9,0,13384298,371518346,-6271195566458058063,1361365919.491823,15040,-5128,-2864,nan,0.000000
2,5,9,0,13384298,371518346,-6271195566458055442,1361365919.491823,15984,-4160,100,nan,0.000000
2,5,9,0,13384298,371518346,-6271195566458052821,1361365919.491823,13548,-4968,8,nan,0.000000
2,5,9,0,13384298,371518346,-6271195566458050200,1361365919.491823,14792,-3472,520,nan,0.000000
1,5,10,0,13465618,371598727,-3389810928077102857,1361365919.492959,15416,-5232,736,nan,0.000000
1,5,10,1,13465618,371598727,-3389810928077100236,1361365919.492959,18068,-3440,1808,nan,0.000000
2,5,11,1,13465618,371598759,-3389810928077097615,1361365919.493636,17588,-5064,232,nan,0.000000
2,5,11,1,13465618,371598759,-3389810928077094994,1361365919.493636,16308,-8528,-2096,nan,0.000000
2,5,11,1,13465618,371598759,-3389810928077092373,1361365919.493636,11668,-2876,-4284,nan,0.000000
2,5,11,1,13465618,371598759,-3389810928077089752,1361365919.493636,15548,-6656,-2892,nan,0.000000
2,5,11,1,13465618,371598759,-3389810928077087131,1361365919.493636,13828,-5396,-2440,nan,0.000000
2,5,12,1,13465618,371598791,-3389810928077084510,1361365919.494422,15064,-2124,-1596,nan,0.000000
2,5,12,1,13465618,371598791,-3389810928077081889,1361365919.494422,14856,-2616,-1712,nan,0.000000
2,5,12,1,13465618,371598791,-3389810928077079268,1361365919.494422,15548,-2504,-556,nan,0.000000
2,5,12,1,13465618,371598791,-3389810928077076647,1361365919.494422,15424,-2812,-404,nan,0.000000
2,5,12,1,13465618,371598791,-3389810928077074026,1361365919.494422,17412,-2784,132,nan,0.000000
2,5,13,1,13465618,371598823,-3389810928077071405,1361365919.495435,18508,-2372,1068,nan,0.000000
2,5,13,1,13465618,371598823,-3389810928077068784,1361365919.495435,18156,-5132,-1604,nan,0.000000
2,5,13,1,13465618,371598823,-3389810928077066163,1361365919.495435,11992,-8736,-3084,nan,0.000000
2,5,13,1,13465618,371598823,-3389810928077063542,1361365919.495435,12424,-6780,-2348,nan,0.000000
2,5,13,1,13465618,371598823,-3389810928077060921,1361365919.495435,16380,-4172,-2240,nan,0.000000
2,5,14,1,13465618,371598855,-3389810928077058300,1361365919.496468,15228,-5192,-152,nan,0.000000
2,5,14,1,13465618,371598855,-3389810928077055679,1361365919.496468,12556,-4664,-540,nan,0.000000
2,5,14,1,13465618,371598855,-3389810928077053058,1361365919.496468,15532,-3340,828,nan,0.000000
2,5,14,1,13465618,371598855,-3389810928077050437,1361365919.496468,16024,-3440,492,nan,0.000000
2,5,14,1,13465618,371598855,-3389810928077047816,1361365919.496468,16888,-3936,1360,nan,0.000000
2,5,15,1,13465618,371598887,-3389810928077045195,1361365919.497452,18828,-2556,-168,nan,0.000000
2,5,15,1,13465618,371598887,-3389810928077042574,1361365919.497452,17068,-8256,-2132,nan,0.000000
2,5,15,1,13465618,371598887,-3389810928077039953,1361365919.497452,11708,-2336,-3928,nan,0.000000
2,5,15,1,13465618,371598887,-3389810928077037332,1361365919.497452,15868,-5608,-2336,nan,0.000000
2,5,15,1,13465618,371598887,-3389810928077034711,1361365919.497452,13708,-6468,-2232,nan,0.000000
2,5,0,1,13465618,371598919,-3389810928077032090,1361365921.969909,14268,-2580,-1980,nan,0.000000
2,5,0,1,13465618,371598919,-3389810928077029469,1361365921.969909,14688,-3436,-1796,nan,0.000000
2,5,0,1,13465618,371598919,-3389810928077026848,1361365921.969909,15720,-3340,-1040,nan,0.000000
2,5,0,1,13465618,371598919,-3389810928077024227,1361365921.969909,15432,-3884,-360,nan,0.000000
2,5,0,1,13465618,371598919,-3389810928077021606,1361365921.969909,17980,-2872,116,nan,0.000000
1,5,1,0,13546937,371679906,-218260813210106632,1361365921.971128,14560,-8560,-3928,nan,0.000000
1,5,1,0,13546937,371679906,-218260813210104011,1361365921.971128,11732,-7692,-2432,nan,0.000000
2,5,2,0,13546937,371679938,-218260813210101390,1361365921.971802,16020,-4340,-1448,nan,0.000000
2,5,2,0,13546937,371679938,-218260813210098769,1361365921.971802,15648,-4184,248,nan,0.000000
2,5,2,0,13546937,371679938,-218260813210096148,1361365921.971802,13012,-5604,516,nan,0.000000
2,5,2,0,13546937,371679938,-218260813210093527,1361365921.971802,13656,-3416,316,nan,0.000000
2,5,2,0,13546937,371679938,-218260813210090906,1361365921.971802,15432,-3436,684,nan,0.000000
2,5,3,0,13546937,371679970,-218260813210088285,1361365921.972754,16480,-4348,1180,nan,0.000000
2,5,3,0,13546937,371679970,-218260813210085664,1361365921.972754,20020,-2116,1328,nan,0.000000
2,5,3,0,13546937,371679970,-218260813210083043,1361365921.972754,17600,-7996,-2776,nan,0.000000
2,5,3,0,13546937,371679970,-218260813210080422,1361365921.972754,11928,-5892,-3696,nan,0.000000
2,5,3,0,13546937,371679970,-218260813210077801,1361365921.972754,13616,-4096,-3688,nan,0.000000
2,5,4,0,13546937,371680002,-218260813210075180,1361365921.973835,15424,-7956,-1668,nan,0.000000
2,5,4,0,13546937,371680002,-218260813210072559,1361365921.973835,13324,-2552,-2728,nan,0.000000
2,5,4,0,13546937,371680002,-218260813210069938,1361365921.973835,14352,-2804,-1328,nan,0.000000
2,5,4,0,13546937,371680002,-218260813210067317,1361365921.973835,15196,-2440,-1380,nan,0.000000
2,5,4,0,13546937,371680002,-218260813210064696,1361365921.973835,18416,-2952,156,nan,0.000000
2,5,5,0,13546937,371680034,-218260813210062075,1361365921.974626,20080,-2508,132,nan,0.000000
2,5,5,0,13546937,371680034,-218260813210059454,1361365921.974626,17636,-7964,-2648,nan,0.000000
2,5,5,0,13546937,371680034,-218260813210056833,1361365921.974626,9628,-6604,-3292,nan,0.000000
2,5,5,0,13546937,371680034,-218260813210054212,1361365921.974626,14952,-4392,-2368,nan,0.000000
2,5,5,0,13546937,371680034,-218260813210051591,1361365921.974626,16196,-4508,208,nan,0.000000
2,5,6,0,13546937,371680066,-218260813210048970,1361365921.975380,13076,-4332,-192,nan,0.000000
2,5,6,0,13546937,371680066,-218260813210046349,1361365921.975380,14052,-3520,64,nan,0.000000
2,5,6,0,13546937,371680066,-218260813210043728,1361365921.975380,16112,-3252,244,nan,0.000000
2,5,6,0,13546937,371680066,-218260813210041107,1361365921.975380,17880,-4712,304,nan,0.000000
2,5,6,0,13546937,371680066,-218260813210038486,1361365921.975380,19356,-4724,-1792,nan,0.000000
2,5,7,0,13546937,371680098,-218260813210035865,1361365924.449687,14484,-5864,-3580,nan,0.000000
2,5,7,0,13546937,371680098,-218260813210033244,1361365924.449687,12080,-1700,-5772,nan,0.000000
2,5,7,0,13546937,371680098,-218260813210030623,1361365924.449687,16996,-7680,-2744,nan,0.000000
2,5,7,0,13546937,371680098,-218260813210028002,1361365924.449687,13804,-3536,-2740,nan,0.000000
2,5,7,0,13546937,371680098,-218260813210025381,1361365924.449687,13280,-1444,-2620,nan,0.000000
1,5,8,0,13628258,371761230,8424366803298223346,1361365924.451337,16796,-2912,-428,nan,0.000000
1,5,8,0,13628258,371761230,8424366803298225967,1361365924.451337,18896,-1308,-4,nan,0.000000
2,5,9,0,13628258,371761262,8424366803298228588,1361365924.451923,19104,-1656,-600,nan,0.000000
2,5,9,0,13628258,371761262,8424366803298231209,1361365924.451923,15084,-9724,-3376,nan,0.000000
2,5,9,0,13628258,371761262,8424366803298233830,1361365924.451923,10112,-6996,-2816,nan,0.000000
2,5,9,0,13628258,371761262,8424366803298236451,1361365924.451923,17028,-3196,-1164,nan,0.000000
2,5,9,0,13628258,371761262,8424366803298239072,1361365924.451923,15280,-4264,12,nan,0.000000
2,5,10,0,13628258,371761294,8424366803298241693,1361365924.453334,13056,-4836,248,nan,0.000000
2,5,10,0,13628258,371761294,8424366803298244314,1361365924.453334,14476,-3272,116,nan,0.000000
2,5,10,0,13628258,371761294,8424366803298246935,1361365924.453334,16068,-4164,-320,nan,0.000000
2,5,10,0,13628258,371761294,8424366803298249556,1361365924.453334,18440,-4232,580,nan,0.000000
2,5,10,0,13628258,371761294,8424366803298252177,1361365924.453334,18932,-5064,-2264,nan,0.000000
2,5,11,0,13628258,371761326,8424366803298254798,1361365924.454701,13840,-7712,-4088,nan,0.000000
2,5,11,0,13628258,371761326,8424366803298257419,1361365924.454701,12956,-4432,-4620,nan,0.000000
2,5,11,0,13628258,371761326,8424366803298260040,1361365924.454701,15200,-8156,-636,nan,0.000000
2,5,11,0,13628258,371761326,8424366803298262661,1361365924.454701,13224,-988,-2468,nan,0.000000
2,5,11,0,13628258,371761326,8424366803298265282,1361365924.454701,15292,-1488,-1072,nan,0.000000
2,5,12,0,13628258,371761358,8424366803298267903,1361365924.455476,15056,-3400,-848,nan,0.000000
2,5,12,0,13628258,371761358,8424366803298270524,1361365924.455476,15944,-4308,120,nan,0.000000
2,5,12,0,13628258,371761358,8424366803298273145,1361365924.455476,19076,-1600,1408,nan,0.000000
2,5,12,0,13628258,371761358,8424366803298275766,1361365924.455476,18648,-7316,-980,nan,0.000000
2,5,12,0,13628258,371761358,8424366803298278387,1361365924.455476,10768,-9444,-3008,nan,0.000000
2,5,13,0,13628258,371761390,8424366803298281008,1361365924.456165,15032,-3352,-2116,nan,0.000000
2,5,13,0,13628258,371761390,8424366803298283629,1361365924.456165,15224,-3984,-620,nan,0.000000
2,5,13,0,13628258,371761390,8424366803298286250,1361365924.456165,14792,-4816,764,nan,0.000000
2,5,13,0,13628258,371761390,8424366803298288871,1361365924.456165,12632,-5140,116,nan,0.000000
2,5,13,0,13628258,371761390,8424366803298291492,1361365924.456165,14980,-3212,392,nan,0.000000
2,5,14,0,13628258,371761422,8424366803298294113,1361365926.933631,16256,-4320,404,nan,0.000000
2,5,14,0,13628258,371761422,8424366803298296734,1361365926.933631,19036,-2644,1820,nan,0.000000
2,5,14,0,13628258,371761422,8424366803298299355,1361365926.933631,19296,-6164,-1764,nan,0.000000
2,5,14,0,13628258,371761422,8424366803298301976,1361365926.933631,13108,-7716,-3792,nan,0.000000
2,5,14,0,13628258,371761422,8424366803298304597,1361365926.933631,12692,-3024,-3952,nan,0.000000
1,5,15,0,13709578,371842573,2019773127714313217,1361365926.934968,13100,-1696,-3104,nan,0.000000
1,5,15,0,13709578,371842573,2019773127714315838,1361365926.934968,14340,-1644,-2012,nan,0.000000
2,5,0,0,13709578,371842604,2019773127714318459,1361365926.935508,15356,-3316,-760,nan,0.000000
2,5,0,0,13709578,371842604,2019773127714321080,1361365926.935508,16280,-3144,-248,nan,0.000000
2,5,0,0,13709578,371842604,2019773127714323701,1361365926.935508,18444,-3008,-328,nan,0.000000
2,5,0,0,13709578,371842604,2019773127714326322,1361365926.935508,20136,-3336,-36,nan,0.000000
2,5,0,0,13709578,371842604,2019773127714328943,1361365926.935508,13996,-9404,-3420,nan,0.000000
2,5,1,0,13709578,371842637,2019773127714331564,1361365926.936461,10736,-7420,-2688,nan,0.000000
2,5,1,0,13709578,371842637,2019773127714334185,1361365926.936461,16788,-2856,-1604,nan,0.000000
2,5,1,0,13709578,371842637,2019773127714336806,1361365926.936461,14688,-3952,176,nan,0.000000
2,5,1,0,13709578,371842637,2019773127714339427,1361365926.936461,13148,-5072,280,nan,0.000000
2,5,1,0,13709578,371842637,2019773127714342048,1361365926.936461,14328,-3196,592,nan,0.000000
2,5,2,0,13709578,371842668,2019773127714344669,1361365926.937277,15768,-3256,652,nan,0.000000
2,5,2,0,13709578,371842668,2019773127714347290,1361365926.937277,18964,-3092,1660,nan,0.000000
2,5,2,0,13709578,371842668,2019773127714349911,1361365926.937277,19312,-4796,-1056,nan,0.000000
2,5,2,0,13709578,371842668,2019773127714352532,1361365926.937277,14792,-8180,-4040,nan,0.000000
2,5,2,0,13709578,371842668,2019773127714355153,1361365926.937277,12008,-2292,-4108,nan,0.000000
2,5,3,0,13709578,371842701,2019773127714357774,1361365926.938065,17308,-7156,-548,nan,0.000000
2,5,3,0,13709578,371842701,2019773127714360395,1361365926.938065,13560,-2376,-1656,nan,0.000000
2,5,3,0,13709578,371842701,2019773127714363016,1361365926.938065,15100,248,48,nan,0.000000
2,5,3,0,13709578,371842701,2019773127714365637,1361365926.938065,14776,-3028,-100,nan,0.000000
2,5,3,0,13709578,371842701,2019773127714368258,1361365926.938065,15736,-2552,380,nan,0.000000
2,5,4,0,13709578,371842732,2019773127714370879,1361365926.939263,18112,-2044,2316,nan,0.000000
2,5,4,0,13709578,371842732,2019773127714373500,1361365926.939263,20072,-5124,1816,nan,0.000000
2,5,4,0,13709578,371842732,2019773127714376121,1361365926.939263,13124,-8112,-1700,nan,0.000000
2,5,4,0,13709578,371842732,2019773127714378742,1361365926.939263,11200,-7084,-596,nan,0.000000
2,5,4,0,13709578,371842732,2019773127714381363,1361365926.939263,16840,-4440,816,nan,0.000000
2,5,5,0,13709578,371842765,2019773127714383984,1361365929.413593,15304,-3244,2768,nan,0.000000
2,5,5,0,13709578,371842765,2019773127714386605,1361365929.413593,13668,-4348,2332,nan,0.000000
2,5,5,0,13709578,371842765,2019773127714389226,1361365929.413593,15160,-1476,-164,nan,0.000000
2,5,5,0,13709578,371842765,2019773127714391847,1361365929.413593,15772,-3968,392,nan,0.000000
2,5,5,0,13709578,371842765,2019773127714394468,1361365929.413593,18268,-6140,1308,nan,0.000000
1,5,6,0,13790898,371923880,2020151334077321226,1361365929.415231,14092,-1636,-3648,nan,0.000000
1,5,6,0,13790898,371923880,2020151334077323847,1361365929.415231,15400,-5612,-3752,nan,0.000000
2,5,7,0,13790898,371923912,2020151334077326468,1361365929.415826,14416,-5388,-1112,nan,0.000000
2,5,7,0,13790898,371923912,2020151334077329089,1361365929.415826,13056,-820,-3344,nan,0.000000
2,5,7,0,13790898,371923912,2020151334077331710,1361365929.415826,14916,-5008,-1428,nan,0.000000
2,5,7,0,13790898,371923912,2020151334077334331,1361365929.415826,15812,-2524,-1292,nan,0.000000
2,5,7,0,13790898,371923912,2020151334077336952,1361365929.415826,18396,-2136,216,nan,0.000000
2,5,8,0,13790898,371923943,2020151334077339573,1361365929.417220,18300,-1592,-472,nan,0.000000
2,5,8,0,13790898,371923943,2020151334077342194,1361365929.417220,15864,-8284,-2364,nan,0.000000
2,5,8,0,13790898,371923943,2020151334077344815,1361365929.417220,10588,-6728,-3100,nan,0.000000
2,5,8,0,13790898,371923943,2020151334077347436,1361365929.417220,17164,-4384,-1532,nan,0.000000
2,5,8,0,13790898,371923943,2020151334077350057,1361365929.417220,15340,-3748,-612,nan,0.000000
2,5,9,0,13790898,371923976,2020151334077352678,1361365929.417983,13300,-5232,-796,nan,0.000000
2,5,9,0,13790898,371923976,2020151334077355299,1361365929.417983,14848,-4088,-716,nan,0.000000
2,5,9,0,13790898,371923976,2020151334077357920,1361365929.417983,15532,-3640,-844,nan,0.000000
2,5,9,0,13790898,371923976,2020151334077360541,1361365929.417983,16620,-4412,-388,nan,0.000000
2,5,9,0,13790898,371923976,2020151334077363162,1361365929.417983,17920,-4860,-1932,nan,0.000000
2,5,10,0,13790898,371924007,2020151334077365783,1361365929.419736,16512,-7408,-2656,nan,0.000000
2,5,10,0,13790898,371924007,2020151334077368404,1361365929.419736,11924,-1748,-4684,nan,0.000000
2,5,10,0,13790898,371924007,2020151334077371025,1361365929.419736,14876,-4588,-5084,nan,0.000000
2,5,10,0,13790898,371924007,2020151334077373646,1361365929.419736,16856,-6776,-2752,nan,0.000000
2,5,10,0,13790898,371924007,2020151334077376267,1361365929.419736,13504,-692,-3164,nan,0.000000
2,5,11,0,13790898,371924040,2020151334077378888,1361365929.420424,13212,-2632,-3484,nan,0.000000
2,5,11,0,13790898,371924040,2020151334077381509,1361365929.420424,16028,-3008,-3504,nan,0.000000
2,5,11,0,13790898,371924040,2020151334077384130,1361365929.420424,16460,-4060,-3012,nan,0.000000
2,5,11,0,13790898,371924040,2020151334077386751,1361365929.420424,15992,-3328,-2124,nan,0.000000
2,5,11,0,13790898,371924040,2020151334077389372,1361365929.420424,17008,-1136,-1056,nan,0.000000
2,5,12,0,13790898,371924071,2020151334077391993,1361365931.907464,17992,-3496,-3216,nan,0.000000
2,5,12,0,13790898,371924071,2020151334077394614,1361365931.907464,15276,-6028,-3440,nan,0.000000
2,5,12,0,13790898,371924071,2020151334077397235,1361365931.907464,10564,-5856,-3144,nan,0.000000
2,5,12,0,13790898,371924071,2020151334077399856,1361365931.907464,16440,-6168,-2248,nan,0.000000
2,5,12,0,13790898,371924071,2020151334077402477,1361365931.907464,16140,-4132,-1848,nan,0.000000
1,5,13,0,13872218,372005547,-8002205045213138701,1361365931.908635,14540,-3972,-408,nan,0.000000
1,5,13,0,13872218,372005547,-8002205045213136080,1361365931.908635,15200,-5120,-728,nan,0.000000
2,5,14,0,13872218,372005579,-8002205045213133459,1361365931.909173,14944,-6656,-864,nan,0.000000
2,5,14,0,13872218,372005579,-8002205045213130838,1361365931.909173,14512,-8380,-628,nan,0.000000
2,5,14,0,13872218,372005579,-8002205045213128217,1361365931.909173,14548,-6260,-2284,nan,0.000000
2,5,14,0,13872218,372005579,-8002205045213125596,1361365931.909173,17180,-8348,-4660,nan,0.000000
2,5,14,0,13872218,372005579,-8002205045213122975,1361365931.909173,12564,-2600,-4892,nan,0.000000
2,5,15,0,13872218,372005611,-8002205045213120354,1361365931.910062,12548,-2584,-6640,nan,0.000000
2,5,15,0,13872218,372005611,-8002205045213117733,1361365931.910062,16920,-6960,-3996,nan,0.000000
2,5,15,0,13872218,372005611,-8002205045213115112,1361365931.910062,15808,-1632,-4284,nan,0.000000
2,5,15,0,13872218,372005611,-8002205045213112491,1361365931.910062,14284,-2684,-3860,nan,0.000000
2,5,15,0,13872218,372005611,-8002205045213109870,1361365931.910062,16288,-2052,-3616,nan,0.000000
2,5,0,0,13872218,372005643,-8002205045213107249,1361365931.911124,15380,-3264,-3096,nan,0.000000
2,5,0,0,13872218,372005643,-8002205045213104628,1361365931.911124,14596,-3916,-2816,nan,0.000000
2,5,0,0,13872218,372005643,-8002205045213102007,1361365931.911124,16896,-4712,-2256,nan,0.000000
2,5,0,0,13872218,372005643,-8002205045213099386,1361365931.911124,16768,-3768,-2868,nan,0.000000
2,5,0,0,13872218,372005643,-8002205045213096765,1361365931.911124,14232,-6132,-3840,nan,0.000000
2,5,1,0,13872218,372005675,-8002205045213094144,1361365931.912113,10172,-8276,-3272,nan,0.000000
2,5,1,0,13872218,372005675,-8002205045213091523,1361365931.912113,17112,-8580,-2340,nan,0.000000
2,5,1,0,13872218,372005675,-8002205045213088902,1361365931.912113,15360,-3400,-1676,nan,0.000000
2,5,1,0,13872218,372005675,-8002205045213086281,1361365931.912113,14320,-6740,-180,nan,0.000000
2,5,1,0,13872218,372005675,-8002205045213083660,1361365931.912113,13272,-4424,-668,nan,0.000000
2,5,2,0,13872218,372005706,-8002205045213081039,1361365931.913435,14592,-4028,1668,nan,0.000000
2,5,2,0,13872218,372005706,-8002205045213078418,1361365931.913435,17928,-3500,2916,nan,0.000000
2,5,2,0,13872218,372005706,-8002205045213075797,1361365931.913435,16916,-4256,-8,nan,0.000000
2,5,2,0,13872218,372005706,-8002205045213073176,1361365931.913435,17124,-8280,-1344,nan,0.000000
2,5,2,0,13872218,372005706,-8002205045213070555,1361365931.913435,12736,-2460,-3548,nan,0.000000
2,5,3,0,13872218,372005738,-8002205045213067934,1361365934.377216,13768,-5024,-4120,nan,0.000000
2,5,3,0,13872218,372005738,-8002205045213065313,1361365934.377216,16620,-4532,-3020,nan,0.000000
2,5,3,0,13872218,372005738,-8002205045213062692,1361365934.377216,14936,-3704,-2828,nan,0.000000
2,5,3,0,13872218,372005738,-8002205045213060071,1361365934.377216,14768,-3236,-2144,nan,0.000000
2,5,3,0,13872218,372005738,-8002205045213057450,1361365934.377216,15704,-2396,-1280,nan,0.000000
1,5,4,0,13953538,372086527,3815759373339257071,1361365934.380111,15012,-3176,-872,nan,0.000000
1,5,4,0,13953538,372086527,3815759373339259692,1361365934.380111,17580,-1172,392,nan,0.000000
2,5,5,0,13953538,372086559,3815759373339262313,1361365934.384696,17340,-2852,-140,nan,0.000000
2,5,5,0,13953538,372086559,3815759373339264934,1361365934.384696,16204,-6012,-1244,nan,0.000000
2,5,5,0,13953538,372086559,3815759373339267555,1361365934.384696,11324,-8512,-1624,nan,0.000000
2,5,5,0,13953538,372086559,3815759373339270176,1361365934.384696,14896,-6288,-1220,nan,0.000000
2,5,5,0,13953538,372086559,3815759373339272797,1361365934.384696,17712,-3704,212,nan,0.000000
2,5,6,0,13953538,372086591,3815759373339275418,1361365934.389644,13260,-4316,296,nan,0.000000
2,5,6,0,13953538,372086591,3815759373339278039,1361365934.389644,14984,-4224,848,nan,0.000000
2,5,6,0,13953538,372086591,3815759373339280660,1361365934.389644,15816,-3536,1452,nan,0.000000
2,5,6,0,13953538,372086591,3815759373339283281,1361365934.389644,15484,-3580,2664,nan,0.000000
2,5,6,0,13953538,372086591,3815759373339285902,1361365934.389644,14636,-4548,1620,nan,0.000000
2,5,7,0,13953538,372086623,3815759373339288523,1361365934.393087,17696,-3916,2008,nan,0.000000
2,5,7,0,13953538,372086623,3815759373339291144,1361365934.393087,17952,-5576,644,nan,0.000000
2,5,7,0,13953538,372086623,3815759373339293765,1361365934.393087,14748,-6968,-596,nan,0.000000
2,5,7,0,13953538,372086623,3815759373339296386,1361365934.393087,12508,-2688,-3876,nan,0.000000
2,5,7,0,13953538,372086623,3815759373339299007,1361365934.393087,16900,-6856,-1672,nan,0.000000
2,5,8,0,13953538,372086655,3815759373339301628,1361365934.396143,14024,-3936,-2112,nan,0.000000
2,5,8,0,13953538,372086655,3815759373339304249,1361365934.396143,15736,-1744,-1300,nan,0.000000
2,5,8,0,13953538,372086655,3815759373339306870,1361365934.396143,15332,-1944,-1464,nan,0.000000
2,5,8,0,13953538,372086655,3815759373339309491,1361365934.396143,15956,-1932,-72,nan,0.000000
2,5,8,0,13953538,372086655,3815759373339312112,1361365934.396143,14856,-2448,-348,nan,0.000000
2,5,9,0,13953538,372086687,3815759373339314733,1361365934.400766,16760,-1596,632,nan,0.000000
2,5,9,0,13953538,372086687,3815759373339317354,1361365934.400766,17004,-1880,856,nan,0.000000
2,5,9,0,13953538,372086687,3815759373339319975,1361365934.400766,17916,-2056,400,nan,0.000000
2,5,9,0,13953538,372086687,3815759373339322596,1361365934.400766,16560,-5840,-2064,nan,0.000000
2,5,9,0,13953538,372086687,3815759373339325217,1361365934.400766,11740,-8860,-2432,nan,0.000000
2,5,10,0,13953538,372086719,3815759373339327838,1361365936.861390,15796,-3788,-2236,nan,0.000000
2,5,10,0,13953538,372086719,3815759373339330459,1361365936.861390,16324,-3976,-468,nan,0.000000
2,5,10,0,13953538,372086719,3815759373339333080,1361365936.861390,13776,-4628,-56,nan,0.000000
2,5,10,0,13953538,372086719,3815759373339335701,1361365936.861390,14620,-3268,280,nan,0.000000
2,5,10,0,13953538,372086719,3815759373339338322,1361365936.861390,15148,-3644,756,nan,0.000000
1,5,11,0,14034859,372167906,3242161757233300727,1361365936.863036,16632,-3796,1392,nan,0.000000
1,5,11,0,14034859,372167906,3242161757233303348,1361365936.863036,17992,-3448,464,nan,0.000000
2,5,12,0,14034859,372167938,3242161757233305969,1361365936.863633,16972,-6972,-1080,nan,0.000000
2,5,12,0,14034859,372167938,3242161757233308590,1361365936.863633,12668,-3132,-3396,nan,0.000000
2,5,12,0,14034859,372167938,3242161757233311211,1361365936.863633,15944,-5164,-3100,nan,0.000000
2,5,12,0,14034859,372167938,3242161757233313832,1361365936.863633,14820,-4644,-2040,nan,0.000000
2,5,12,0,14034859,372167938,3242161757233316453,1361365936.863633,14920,-1248,-2668,nan,0.000000
2,5,13,0,14034859,372167969,3242161757233319074,1361365936.865117,14892,-3236,-2080,nan,0.000000
2,5,13,0,14034859,372167969,3242161757233321695,1361365936.865117,15700,-2092,-1008,nan,0.000000
2,5,13,0,14034859,372167969,3242161757233324316,1361365936.865117,15776,-1200,-956,nan,0.000000
2,5,13,0,14034859,372167969,3242161757233326937,1361365936.865117,16492,-1588,-1168,nan,0.000000
2,5,13,0,14034859,372167969,3242161757233329558,1361365936.865117,17228,-1700,-828,nan,0.000000
2,5,14,0,14034859,372168002,3242161757233332179,1361365936.866185,17916,-3120,-780,nan,0.000000
2,5,14,0,14034859,372168002,3242161757233334800,1361365936.866185,15476,-8816,-2400,nan,0.000000
2,5,14,0,14034859,372168002,3242161757233337421,1361365936.866185,11932,-7988,-1908,nan,0.000000
2,5,14,0,14034859,372168002,3242161757233340042,1361365936.866185,16432,-4252,-1600,nan,0.000000
2,5,14,0,14034859,372168002,3242161757233342663,1361365936.866185,15088,-4696,96,nan,0.000000
2,5,15,0,14034859,372168033,3242161757233345284,1361365936.867006,13300,-5548,-536,nan,0.000000
2,5,15,0,14034859,372168033,3242161757233347905,1361365936.867006,15236,-4424,700,nan,0.000000
2,5,15,0,14034859,372168033,3242161757233350526,1361365936.867006,14524,-3908,520,nan,0.000000
2,5,15,0,14034859,372168033,3242161757233353147,1361365936.867006,15380,-4360,988,nan,0.000000
2,5,15,0,14034859,372168033,3242161757233355768,1361365936.867006,15940,-4092,748,nan,0.000000
2,5,0,0,14034859,372168066,3242161757233358389,1361365936.867832,17976,-3092,1348,nan,0.000000
2,5,0,0,14034859,372168066,3242161757233361010,1361365936.867832,17196,-6340,-460,nan,0.000000
2,5,0,0,14034859,372168066,3242161757233363631,1361365936.867832,13684,-5640,-2480,nan,0.000000
2,5,0,0,14034859,372168066,3242161757233366252,1361365936.867832,14324,-4408,-3324,nan,0.000000
2,5,0,0,14034859,372168066,3242161757233368873,1361365936.867832,16360,-6772,-1280,nan,0.000000
2,5,1,0,14034859,372168097,3242161757233371494,1361365939.341266,13732,-2424,-2824,nan,0.000000
2,5,1,0,14034859,372168097,3242161757233374115,1361365939.341266,15920,-2588,-1616,nan,0.000000
2,5,1,0,14034859,372168097,3242161757233376736,1361365939.341266,15544,-1616,-1072,nan,0.000000
2,5,1,0,14034859,372168097,3242161757233379357,1361365939.341266,15496,-2740,-76,nan,0.000000
2,5,1,0,14034859,372168097,3242161757233381978,1361365939.341266,15516,-2600,104,nan,0.000000
1,5,2,0,14116179,372249177,-5694268512105727756,1361365939.342994,17760,-2928,-128,nan,0.000000
1,5,2,0,14116179,372249177,-5694268512105725135,1361365939.342994,16640,-3196,-980,nan,0.000000
2,5,3,0,14116179,372249209,-5694268512105722514,1361365939.343540,12568,-8192,-1760,nan,0.000000
2,5,3,0,14116179,372249209,-5694268512105719893,1361365939.343540,13468,-7776,-1324,nan,0.000000
2,5,3,0,14116179,372249209,-5694268512105717272,1361365939.343540,17576,-3388,-816,nan,0.000000
2,5,3,0,14116179,372249209,-5694268512105714651,1361365939.343540,13800,-5140,-600,nan,0.000000
2,5,3,0,14116179,372249209,-5694268512105712030,1361365939.343540,13940,-5304,256,nan,0.000000
2,5,4,0,14116179,372249241,-5694268512105709409,1361365939.344981,14324,-4836,-56,nan,0.000000
2,5,4,0,14116179,372249241,-5694268512105706788,1361365939.344981,14688,-5048,376,nan,0.000000
2,5,4,0,14116179,372249241,-5694268512105704167,1361365939.344981,16380,-4324,620,nan,0.000000
2,5,4,0,14116179,372249241,-5694268512105701546,1361365939.344981,18284,-2444,848,nan,0.000000
2,5,4,0,14116179,372249241,-5694268512105698925,1361365939.344981,18172,-4980,16,nan,0.000000
2,5,5,0,14116179,372249273,-5694268512105696304,1361365939.345848,14372,-7388,-1084,nan,0.000000
2,5,5,0,14116179,372249273,-5694268512105693683,1361365939.345848,12356,-3228,-4332,nan,0.000000
2,5,5,0,14116179,372249273,-5694268512105691062,1361365939.345848,17012,-7344,800,nan,0.000000
2,5,5,0,14116179,372249273,-5694268512105688441,1361365939.345848,13532,-2864,-2452,nan,0.000000
2,5,5,0,14116179,372249273,-5694268512105685820,1361365939.345848,14884,-2896,-1820,nan,0.000000
2,5,6,0,14116179,372249304,-5694268512105683199,1361365939.346948,15244,-2964,-1640,nan,0.000000
2,5,6,0,14116179,372249304,-5694268512105680578,1361365939.346948,15852,-3312,-900,nan,0.000000
2,5,6,0,14116179,372249304,-5694268512105677957,1361365939.346948,16632,-2556,-1096,nan,0.000000
2,5,6,0,14116179,372249304,-5694268512105675336,1361365939.346948,17856,-3732,-552,nan,0.000000
2,5,6,0,14116179,372249304,-5694268512105672715,1361365939.346948,16988,-6316,-2160,nan,0.000000
2,5,7,0,14116179,372249337,-5694268512105670094,1361365939.347727,12052,-8428,-2504,nan,0.000000
2,5,7,0,14116179,372249337,-5694268512105667473,1361365939.347727,14848,-6036,-1728,nan,0.000000
2,5,7,0,14116179,372249337,-5694268512105664852,1361365939.347727,15840,-3824,-2328,nan,0.000000
2,5,7,0,14116179,372249337,-5694268512105662231,1361365939.347727,13832,-5404,-116,nan,0.000000
2,5,7,0,14116179,372249337,-5694268512105659610,1361365939.347727,14460,-4892,-564,nan,0.000000
2,5,8,0,14116179,372249368,-5694268512105656989,1361365941.823248,14676,-3952,-256,nan,0.000000
2,5,8,0,14116179,372249368,-5694268512105654368,1361365941.823248,15488,-4580,-120,nan,0.000000
2,5,8,0,14116179,372249368,-5694268512105651747,1361365941.823248,16484,-4564,200,nan,0.000000
2,5,8,0,14116179,372249368,-5694268512105649126,1361365941.823248,17000,-3728,704,nan,0.000000
2,5,8,0,14116179,372249368,-5694268512105646505,1361365941.823248,16040,-5060,64,nan,0.000000
1,5,9,0,14197499,372330501,-8575103354810924801,1361365941.824909,12560,-2848,-4536,nan,0.000000
1,5,9,0,14197499,372330501,-8575103354810922180,1361365941.824909,15956,-5624,-2744,nan,0.000000
2,5,10,0,14197499,372330533,-8575103354810919559,1361365941.825509,15000,-4940,-1804,nan,0.000000
2,5,10,0,14197499,372330533,-8575103354810916938,1361365941.825509,14572,-1628,-2956,nan,0.000000
2,5,10,0,14197499,372330533,-8575103354810914317,1361365941.825509,14480,-3420,-2088,nan,0.000000
2,5,10,0,14197499,372330533,-8575103354810911696,1361365941.825509,15324,-3228,-1040,nan,0.000000
2,5,10,0,14197499,372330533,-8575103354810909075,1361365941.825509,15400,-3720,-1488,nan,0.000000
2,5,11,0,14197499,372330565,-8575103354810906454,1361365941.826936,17928,-2780,-1064,nan,0.000000
2,5,11,0,14197499,372330565,-8575103354810903833,1361365941.826936,19072,-2912,-1068,nan,0.000000
2,5,11,0,14197499,372330565,-8575103354810901212,1361365941.826936,14924,-8528,-4148,nan,0.000000
2,5,11,0,14197499,372330565,-8575103354810898591,1361365941.826936,11696,-6828,-2332,nan,0.000000
2,5,11,0,14197499,372330565,-8575103354810895970,1361365941.826936,16052,-5132,-2124,nan,0.000000
2,5,12,0,14197499,372330597,-8575103354810893349,1361365941.827808,14920,-3628,-1668,nan,0.000000
2,5,12,0,14197499,372330597,-8575103354810890728,1361365941.827808,13764,-5720,-424,nan,0.000000
2,5,12,0,14197499,372330597,-8575103354810888107,1361365941.827808,14156,-3564,-176,nan,0.000000
2,5,12,0,14197499,372330597,-8575103354810885486,1361365941.827808,14912,-3656,484,nan,0.000000
2,5,12,0,14197499,372330597,-8575103354810882865,1361365941.827808,15448,-4612,348,nan,0.000000
2,5,13,0,14197499,372330629,-8575103354810880244,1361365941.828887,17688,-4312,1628,nan,0.000000
2,5,13,0,14197499,372330629,-8575103354810877623,1361365941.828887,18804,-3056,-372,nan,0.000000
2,5,13,0,14197499,372330629,-8575103354810875002,1361365941.828887,15928,-6272,-2192,nan,0.000000
2,5,13,0,14197499,372330629,-8575103354810872381,1361365941.828887,12896,-3148,-4096,nan,0.000000
2,5,13,0,14197499,372330629,-8575103354810869760,1361365941.828887,16608,-6368,-444,nan,0.000000
2,5,14,0,14197499,372330661,-8575103354810867139,1361365941.829881,12864,-2172,-2356,nan,0.000000
2,5,14,0,14197499,372330661,-8575103354810864518,1361365941.829881,15688,-2616,-1204,nan,0.000000
2,5,14,0,14197499,372330661,-8575103354810861897,1361365941.829881,15060,-3496,-1404,nan,0.000000
2,5,14,0,14197499,372330661,-8575103354810859276,1361365941.829881,15584,-2820,-636,nan,0.000000
2,5,14,0,14197499,372330661,-8575103354810856655,1361365941.829881,16648,-2756,-564,nan,0.000000
2,5,15,0,14197499,372330693,-8575103354810854034,1361365944.307246,18520,-1272,344,nan,0.000000
2,5,15,0,14197499,372330693,-8575103354810851413,1361365944.307246,17336,-4544,-1172,nan,0.000000
2,5,15,0,14197499,372330693,-8575103354810848792,1361365944.307246,12796,-6428,-652,nan,0.000000
2,5,15,0,14197499,372330693,-8575103354810846171,1361365944.307246,15112,-7388,-1804,nan,0.000000
2,5,15,0,14197499,372330693,-8575103354810843550,1361365944.307246,15800,-3436,-868,nan,0.000000
1,5,0,0,14278818,372411878,7852941769288407041,1361365944.308376,13324,-4232,-484,nan,0.000000
1,5,0,0,14278818,372411878,7852941769288409662,1361365944.308376,14344,-2308,380,nan,0.000000
2,5,1,0,14278818,372411910,7852941769288412283,1361365944.308982,16580,-2236,-1196,nan,0.000000
2,5,1,0,14278818,372411910,7852941769288414904,1361365944.308982,14236,-6348,6308,nan,0.000000
2,5,1,0,14278818,372411910,7852941769288417525,1361365944.308982,20648,164,436,nan,0.000000
2,5,1,0,14278818,372411910,7852941769288420146,1361365944.308982,15648,-8028,-2296,nan,0.000000
2,5,1,0,14278818,372411910,7852941769288422767,1361365944.308982,13896,-5560,-3112,nan,0.000000
2,5,2,0,14278818,372411942,7852941769288425388,1361365944.309726,13944,-4892,-3572,nan,0.000000
2,5,2,0,14278818,372411942,7852941769288428009,1361365944.309726,15172,-7380,-1340,nan,0.000000
2,5,2,0,14278818,372411942,7852941769288430630,1361365944.309726,13284,-276,-2500,nan,0.000000
2,5,2,0,14278818,372411942,7852941769288433251,1361365944.309726,15120,-1480,-660,nan,0.000000
2,5,2,0,14278818,372411942,7852941769288435872,1361365944.309726,16868,-4712,-1980,nan,0.000000
2,5,3,0,14278818,372411974,7852941769288438493,1361365944.310839,16732,-2280,108,nan,0.000000
2,5,3,0,14278818,372411974,7852941769288441114,1361365944.310839,17088,-2172,840,nan,0.000000
2,5,3,0,14278818,372411974,7852941769288443735,1361365944.310839,17000,-7768,-2332,nan,0.000000
2,5,3,0,14278818,372411974,7852941769288446356,1361365944.310839,12424,-10408,-3828,nan,0.000000
2,5,3,0,14278818,372411974,7852941769288448977,1361365944.310839,15072,-3152,-2324,nan,0.000000
2,5,4,0,14278818,372412006,7852941769288451598,1361365944.311784,16344,-1308,-372,nan,0.000000
2,5,4,0,14278818,372412006,7852941769288454219,1361365944.311784,14716,-3756,44,nan,0.000000
2,5,4,0,14278818,372412006,7852941769288456840,1361365944.311784,14964,-4168,-176,nan,0.000000
2,5,4,0,14278818,372412006,7852941769288459461,1361365944.311784,14708,-2080,320,nan,0.000000
2,5,4,0,14278818,372412006,7852941769288462082,1361365944.311784,16156,-4068,-64,nan,0.000000
2,5,5,0,14278818,372412038,7852941769288464703,1361365944.312858,17336,-2668,760,nan,0.000000
2,5,5,0,14278818,372412038,7852941769288467324,1361365944.312858,17688,-3644,4,nan,0.000000
2,5,5,0,14278818,372412038,7852941769288469945,1361365944.312858,16688,-6640,-644,nan,0.000000
2,5,5,0,14278818,372412038,7852941769288472566,1361365944.312858,11860,-2048,-3100,nan,0.000000
2,5,5,0,14278818,372412038,7852941769288475187,1361365944.312858,17584,-6328,-760,nan,0.000000
2,5,6,0,14278818,372412070,7852941769288477808,1361365946.811190,13912,-3164,-1072,nan,0.000000
2,5,6,0,14278818,372412070,7852941769288480429,1361365946.811190,15384,-1736,-684,nan,0.000000
2,5,6,0,14278818,372412070,7852941769288483050,1361365946.811190,15236,-2736,-704,nan,0.000000
2,5,6,0,14278818,372412070,7852941769288485671,1361365946.811190,16132,-2380,100,nan,0.000000
2,5,6,0,14278818,372412070,7852941769288488292,1361365946.811190,15348,-2400,160,nan,0.000000
1,5,7,0,14360139,372493926,6124113710798393595,1361365946.812844,17580,-2312,936,nan,0.000000
1,5,7,0,14360139,372493926,6124113710798396216,1361365946.812844,17028,-2944,-672,nan,0.000000
2,5,8,0,14360139,372494000,6124113710798398837,1361365946.823063,13944,-7296,-896,nan,0.000000
2,5,8,0,14360139,372494000,6124113710798401458,1361365946.823063,14240,-6320,-452,nan,0.000000
2,5,8,0,14360139,372494000,6124113710798404079,1361365946.823063,16896,-2456,-160,nan,0.000000
2,5,8,0,14360139,372494000,6124113710798406700,1361365946.823063,14468,-4348,260,nan,0.000000
2,5,8,0,14360139,372494000,6124113710798409321,1361365946.823063,14748,-4008,1076,nan,0.000000
2,5,9,0,14360139,372494310,6124113710798411942,1361365946.823970,15396,-2684,884,nan,0.000000
2,5,9,0,14360139,372494310,6124113710798414563,1361365946.823970,14696,-3556,900,nan,0.000000
2,5,9,0,14360139,372494310,6124113710798417184,1361365946.823970,15612,-3392,880,nan,0.000000
2,5,9,0,14360139,372494310,6124113710798419805,1361365946.823970,16240,-4000,1448,nan,0.000000
2,5,9,0,14360139,372494310,6124113710798422426,1361365946.823970,17964,-2984,1932,nan,0.000000
2,5,10,0,14360139,372494341,6124113710798425047,1361365946.824849,17316,-5184,592,nan,0.000000
2,5,10,0,14360139,372494341,6124113710798427668,1361365946.824849,15396,-5128,-48,nan,0.000000
2,5,10,0,14360139,372494341,6124113710798430289,1361365946.824849,12724,-2952,-3016,nan,0.000000
2,5,10,0,14360139,372494341,6124113710798432910,1361365946.824849,16640,-6532,-528,nan,0.000000
2,5,10,0,14360139,372494341,6124113710798435531,1361365946.824849,14588,-3568,-1004,nan,0.000000
2,5,11,0,14360139,372494374,6124113710798438152,1361365946.825544,15040,-2592,-652,nan,0.000000
2,5,11,0,14360139,372494374,6124113710798440773,1361365946.825544,15080,-2684,-116,nan,0.000000
2,5,11,0,14360139,372494374,6124113710798443394,1361365946.825544,15548,-2832,804,nan,0.000000
2,5,11,0,14360139,372494374,6124113710798446015,1361365946.825544,15812,-3008,792,nan,0.000000
2,5,11,0,14360139,372494374,6124113710798448636,1361365946.825544,17028,-2460,672,nan,0.000000
2,5,12,0,14360139,372494405,6124113710798451257,1361365946.829334,17776,-2820,1188,nan,0.000000
2,5,12,0,14360139,372494405,6124113710798453878,1361365946.829334,16952,-3108,-1188,nan,0.000000
2,5,12,0,14360139,372494405,6124113710798456499,1361365946.829334,13476,-7692,-636,nan,0.000000
2,5,12,0,14360139,372494405,6124113710798459120,1361365946.829334,14904,-4292,-368,nan,0.000000
2,5,12,0,14360139,372494405,6124113710798461741,1361365946.829334,15392,-4544,80,nan,0.000000
1,5,14,0,14441459,372655799,8072061262159852546,1361365951.752939,17676,-3604,1024,nan,0.000000
1,5,14,1,14441459,372655799,8072061262159855167,1361365951.752939,16804,-5736,-1120,nan,0.000000
2,5,15,1,14441459,372655831,8072061262159857788,1361365951.754014,13112,-3464,-3096,nan,0.000000
2,5,15,1,14441459,372655831,8072061262159860409,1361365951.754014,16380,-5764,-960,nan,0.000000
2,5,15,1,14441459,372655831,8072061262159863030,1361365951.754014,13708,-3472,-1800,nan,0.000000
2,5,15,1,14441459,372655831,8072061262159865651,1361365951.754014,15304,-2280,-1536,nan,0.000000
2,5,15,1,14441459,372655831,8072061262159868272,1361365951.754014,15348,-3664,-980,nan,0.000000
2,5,0,1,14441459,372655862,8072061262159870893,1361365951.754916,15588,-2996,80,nan,0.000000
2,5,0,1,14441459,372655862,8072061262159873514,1361365951.754916,15624,-3448,300,nan,0.000000
2,5,0,1,14441459,372655862,8072061262159876135,1361365951.754916,16964,-3488,768,nan,0.000000
2,5,0,1,14441459,372655862,8072061262159878756,1361365951.754916,17984,-2464,836,nan,0.000000
2,5,0,1,14441459,372655862,8072061262159881377,1361365951.754916,16404,-5716,-1168,nan,0.000000
2,5,1,1,14441459,372655895,8072061262159883998,1361365951.755713,12172,-6480,-1348,nan,0.000000
2,5,1,1,14441459,372655895,8072061262159886619,1361365951.755713,15864,-5984,-100,nan,0.000000
2,5,1,1,14441459,372655895,8072061262159889240,1361365951.755713,15720,-3016,-160,nan,0.000000
2,5,1,1,14441459,372655895,8072061262159891861,1361365951.755713,14412,-4828,796,nan,0.000000
2,5,1,1,14441459,372655895,8072061262159894482,1361365951.755713,14692,-3308,1036,nan,0.000000
2,5,2,1,14441459,372655926,8072061262159897103,1361365951.756644,15124,-3176,1012,nan,0.000000
2,5,2,1,14441459,372655926,8072061262159899724,1361365951.756644,15492,-3360,1144,nan,0.000000
2,5,2,1,14441459,372655926,8072061262159902345,1361365951.756644,15824,-3948,1076,nan,0.000000
2,5,2,1,14441459,372655926,8072061262159904966,1361365951.756644,17688,-3756,1700,nan,0.000000
2,5,2,1,14441459,372655926,8072061262159907587,1361365951.756644,17908,-5320,768,nan,0.000000
2,5,3,1,14441459,372655958,8072061262159910208,1361365951.757665,15064,-4368,-200,nan,0.000000
2,5,3,1,14441459,372655958,8072061262159912829,1361365951.757665,12988,-2400,-3456,nan,0.000000
2,5,3,1,14441459,372655958,8072061262159915450,1361365951.757665,17360,-6192,-216,nan,0.000000
2,5,3,1,14441459,372655958,8072061262159918071,1361365951.757665,13972,-2588,-1068,nan,0.000000
2,5,3,1,14441459,372655958,8072061262159920692,1361365951.757665,15584,-1840,-616,nan,0.000000
2,5,4,1,14441459,372655990,8072061262159923313,1361365951.758861,15280,-2660,-360,nan,0.000000
2,5,4,1,14441459,372655990,8072061262159925934,1361365951.758861,16036,-1860,732,nan,0.000000
2,5,4,1,14441459,372655990,8072061262159928555,1361365951.758861,15724,-2380,588,nan,0.000000
2,5,4,1,14441459,372655990,8072061262159931176,1361365951.758861,17252,-1632,1224,nan,0.000000
2,5,4,1,14441459,372655990,8072061262159933797,1361365951.758861,17280,-1820,1220,nan,0.000000
1,5,5,0,14522780,372656022,-2593302659318507266,1361365951.759597,15096,-5520,-756,nan,0.000000
1,5,5,15,14522780,372656022,-2593302659318504645,1361365951.759597,13168,-7672,-364,nan,0.000000
2,5,6,15,14522780,372656054,-2593302659318502024,1361365951.760059,17124,-1856,196,nan,0.000000
2,5,6,15,14522780,372656054,-2593302659318499403,1361365951.760059,15068,-4508,576,nan,0.000000
2,5,6,15,14522780,372656054,-2593302659318496782,1361365951.760059,14532,-3500,1212,nan,0.000000
2,5,6,15,14522780,372656054,-2593302659318494161,1361365951.760059,15316,-2508,924,nan,0.000000
2,5,6,15,14522780,372656054,-2593302659318491540,1361365951.760059,14844,-3492,1120,nan,0.000000
2,5,7,15,14522780,372656086,-2593302659318488919,1361365951.760787,15680,-3504,1044,nan,0.000000
2,5,7,15,14522780,372656086,-2593302659318486298,1361365951.760787,16756,-3028,1824,nan,0.000000
2,5,7,15,14522780,372656086,-2593302659318483677,1361365951.760787,18212,-3528,356,nan,0.000000
2,5,7,15,14522780,372656086,-2593302659318481056,1361365951.760787,16740,-7012,-124,nan,0.000000
2,5,7,15,14522780,372656086,-2593302659318478435,1361365951.760787,12012,-2776,-3332,nan,0.000000
2,5,8,15,14522780,372656118,-2593302659318475814,1361365951.761369,17140,-7156,-516,nan,0.000000
2,5,8,15,14522780,372656118,-2593302659318473193,1361365951.761369,13612,-3776,-1572,nan,0.000000
2,5,8,15,14522780,372656118,-2593302659318470572,1361365951.761369,15228,-2912,-828,nan,0.000000
2,5,8,15,14522780,372656118,-2593302659318467951,1361365951.761369,15120,-3868,-848,nan,0.000000
2,5,8,15,14522780,372656118,-2593302659318465330,1361365951.761369,15780,-3472,-36,nan,0.000000
2,5,9,15,14522780,372656150,-2593302659318462709,1361365951.762673,15244,-3604,12,nan,0.000000
2,5,9,15,14522780,372656150,-2593302659318460088,1361365951.762673,16684,-2632,360,nan,0.000000
2,5,9,15,14522780,372656150,-2593302659318457467,1361365951.762673,17708,-3640,804,nan,0.000000
2,5,9,15,14522780,372656150,-2593302659318454846,1361365951.762673,17336,-3272,-416,nan,0.000000
2,5,9,15,14522780,372656150,-2593302659318452225,1361365951.762673,13484,-6076,-512,nan,0.000000
2,5,10,15,14522780,372656182,-2593302659318449604,1361365951.763552,12696,-7348,-864,nan,0.000000
2,5,10,15,14522780,372656182,-2593302659318446983,1361365951.763552,17808,-4312,512,nan,0.000000
2,5,10,15,14522780,372656182,-2593302659318444362,1361365951.763552,14408,-4500,440,nan,0.000000
2,5,10,15,14522780,372656182,-2593302659318441741,1361365951.763552,13852,-4864,472,nan,0.000000
2,5,10,15,14522780,372656182,-2593302659318439120,1361365951.763552,15804,-3688,824,nan,0.000000
2,5,11,15,14522780,372656214,-2593302659318436499,1361365954.233004,15032,-4080,1384,nan,0.000000
2,5,11,15,14522780,372656214,-2593302659318433878,1361365954.233004,15080,-2980,1472,nan,0.000000
2,5,11,15,14522780,372656214,-2593302659318431257,1361365954.233004,16116,-3776,1328,nan,0.000000
2,5,11,15,14522780,372656214,-2593302659318428636,1361365954.233004,18544,-3488,1376,nan,0.000000
2,5,11,15,14522780,372656214,-2593302659318426015,1361365954.233004,17496,-6228,-68,nan,0.000000
1,5,12,0,14604099,372737121,-4610176436605917179,1361365954.234760,14716,-4968,-2608,nan,0.000000
1,5,12,2,14604099,372737121,-4610176436605914558,1361365954.234760,15956,-6424,-332,nan,0.000000
2,5,13,2,14604099,372737153,-4610176436605911937,1361365954.235418,14164,-2716,-1264,nan,0.000000
2,5,13,2,14604099,372737153,-4610176436605909316,1361365954.235418,15712,-3476,-444,nan,0.000000
2,5,13,2,14604099,372737153,-4610176436605906695,1361365954.235418,15624,-3084,-452,nan,0.000000
2,5,13,2,14604099,372737153,-4610176436605904074,1361365954.235418,15640,-3512,236,nan,0.000000
2,5,13,2,14604099,372737153,-4610176436605901453,1361365954.235418,15460,-2984,196,nan,0.000000
2,5,14,2,14604099,372737184,-4610176436605898832,1361365954.236282,16244,-2520,268,nan,0.000000
2,5,14,2,14604099,372737184,-4610176436605896211,1361365954.236282,17024,-3916,608,nan,0.000000
2,5,14,2,14604099,372737184,-4610176436605893590,1361365954.236282,16556,-3176,348,nan,0.000000
2,5,14,2,14604099,372737184,-4610176436605890969,1361365954.236282,16324,-4528,320,nan,0.000000
2,5,14,2,14604099,372737184,-4610176436605888348,1361365954.236282,13152,-6448,-292,nan,0.000000
2,5,15,2,14604099,372737216,-4610176436605885727,1361365954.236983,14428,-6776,164,nan,0.000000
2,5,15,2,14604099,372737216,-4610176436605883106,1361365954.236983,16752,-4684,804,nan,0.000000
2,5,15,2,14604099,372737216,-4610176436605880485,1361365954.236983,14060,-5008,884,nan,0.000000
2,5,15,2,14604099,372737216,-4610176436605877864,1361365954.236983,14460,-4388,904,nan,0.000000
2,5,15,2,14604099,372737216,-4610176436605875243,1361365954.236983,15532,-4272,868,nan,0.000000
2,5,0,2,14604099,372737249,-4610176436605872622,1361365954.237683,15116,-4068,1432,nan,0.000000
2,5,0,2,14604099,372737249,-4610176436605870001,1361365954.237683,14560,-4052,1336,nan,0.000000
2,5,0,2,14604099,372737249,-4610176436605867380,1361365954.237683,15760,-4744,2016,nan,0.000000
2,5,0,2,14604099,372737249,-4610176436605864759,1361365954.237683,16056,-3256,2060,nan,0.000000
2,5,0,2,14604099,372737249,-4610176436605862138,1361365954.237683,16740,-3828,2044,nan,0.000000
2,5,1,2,14604099,372737280,-4610176436605859517,1361365954.238598,17144,-5248,1260,nan,0.000000
2,5,1,2,14604099,372737280,-4610176436605856896,1361365954.238598,16860,-5684,552,nan,0.000000
2,5,1,2,14604099,372737280,-4610176436605854275,1361365954.238598,12932,-2440,-1820,nan,0.000000
2,5,1,2,14604099,372737280,-4610176436605851654,1361365954.238598,15828,-4548,-1732,nan,0.000000
2,5,1,2,14604099,372737280,-4610176436605849033,1361365954.238598,14984,-5244,-1152,nan,0.000000
2,5,2,2,14604099,372737313,-4610176436605846412,1361365956.716906,15852,-3640,-316,nan,0.000000
2,5,2,2,14604099,372737313,-4610176436605843791,1361365956.716906,14976,-2448,-940,nan,0.000000
2,5,2,2,14604099,372737313,-4610176436605841170,1361365956.716906,15824,-2988,-604,nan,0.000000
2,5,2,2,14604099,372737313,-4610176436605838549,1361365956.716906,15876,-2784,452,nan,0.000000
2,5,2,2,14604099,372737313,-4610176436605835928,1361365956.716906,15320,-1640,824,nan,0.000000
1,5,3,0,14685417,372818533,6123893797332632830,1361365956.718555,17140,-1592,1204,nan,0.000000
1,5,3,0,14685417,372818533,6123893797332635451,1361365956.718555,17780,-2920,2052,nan,0.000000
2,5,4,0,14685417,372818565,6123893797332638072,1361365956.719218,16544,-2056,528,nan,0.000000
2,5,4,0,14685417,372818565,6123893797332640693,1361365956.719218,15888,-4108,-124,nan,0.000000
2,5,4,0,14685417,372818565,6123893797332643314,1361365956.719218,12836,-7544,-944,nan,0.000000
2,5,4,0,14685417,372818565,6123893797332645935,1361365956.719218,14940,-4972,-156,nan,0.000000
2,5,4,0,14685417,372818565,6123893797332648556,1361365956.719218,17308,-3704,96,nan,0.000000
2,5,5,0,14685417,372818596,6123893797332651177,1361365956.720601,14232,-4700,856,nan,0.000000
2,5,5,0,14685417,372818596,6123893797332653798,1361365956.720601,14132,-3228,664,nan,0.000000
2,5,5,0,14685417,372818596,6123893797332656419,1361365956.720601,16028,-3160,1260,nan,0.000000
2,5,5,0,14685417,372818596,6123893797332659040,1361365956.720601,15304,-3316,1680,nan,0.000000
2,5,5,0,14685417,372818596,6123893797332661661,1361365956.720601,15056,-3444,1428,nan,0.000000
2,5,6,0,14685417,372818629,6123893797332664282,1361365956.721644,15904,-4496,1952,nan,0.000000
2,5,6,0,14685417,372818629,6123893797332666903,1361365956.721644,18096,-2660,2148,nan,0.000000
2,5,6,0,14685417,372818629,6123893797332669524,1361365956.721644,16728,-5192,1080,nan,0.000000
2,5,6,0,14685417,372818629,6123893797332672145,1361365956.721644,16636,-5868,-480,nan,0.000000
2,5,6,0,14685417,372818629,6123893797332674766,1361365956.721644,12700,-2640,-3448,nan,0.000000
2,5,7,0,14685417,372818660,6123893797332677387,1361365956.722583,16772,-6088,-1376,nan,0.000000
2,5,7,0,14685417,372818660,6123893797332680008,1361365956.722583,13476,-4396,-2216,nan,0.000000
2,5,7,0,14685417,372818660,6123893797332682629,1361365956.722583,16000,-2024,-1312,nan,0.000000
2,5,7,0,14685417,372818660,6123893797332685250,1361365956.722583,14968,-2696,-1492,nan,0.000000
2,5,7,0,14685417,372818660,6123893797332687871,1361365956.722583,15748,-2880,-192,nan,0.000000
2,5,8,0,14685417,372818693,6123893797332690492,1361365956.723343,15004,-2192,-12,nan,0.000000
2,5,8,0,14685417,372818693,6123893797332693113,1361365956.723343,16712,-2096,696,nan,0.000000
2,5,8,0,14685417,372818693,6123893797332695734,1361365956.723343,16584,-2252,1200,nan,0.000000
2,5,8,0,14685417,372818693,6123893797332698355,1361365956.723343,18092,-2840,1320,nan,0.000000
2,5,8,0,14685417,372818693,6123893797332700976,1361365956.723343,16972,-3808,-1112,nan,0.000000
2,5,9,0,14685417,372818724,6123893797332703597,1361365959.196853,12864,-7100,-1648,nan,0.000000
2,5,9,0,14685417,372818724,6123893797332706218,1361365959.196853,14616,-5492,-1296,nan,0.000000
2,5,9,0,14685417,372818724,6123893797332708839,1361365959.196853,16096,-4084,-428,nan,0.000000
2,5,9,0,14685417,372818724,6123893797332711460,1361365959.196853,14988,-3920,-440,nan,0.000000
2,5,9,0,14685417,372818724,6123893797332714081,1361365959.196853,14376,-5036,396,nan,0.000000
1,5,10,0,14766736,372899767,-1082397823372521223,1361365959.197932,15148,-3568,796,nan,0.000000
1,5,10,1,14766736,372899767,-1082397823372518602,1361365959.197932,15688,-3376,292,nan,0.000000
2,5,11,1,14766736,372899799,-1082397823372515981,1361365959.198612,16620,-3260,1196,nan,0.000000
2,5,11,1,14766736,372899799,-1082397823372513360,1361365959.198612,17436,-2616,764,nan,0.000000
2,5,11,1,14766736,372899799,-1082397823372510739,1361365959.198612,17576,-6320,-424,nan,0.000000
2,5,11,1,14766736,372899799,-1082397823372508118,1361365959.198612,13552,-4060,-2232,nan,0.000000
2,5,11,1,14766736,372899799,-1082397823372505497,1361365959.198612,15316,-4776,-2392,nan,0.000000
2,5,12,1,14766736,372899831,-1082397823372502876,1361365959.199381,15536,-5396,-676,nan,0.000000
2,5,12,1,14766736,372899831,-1082397823372500255,1361365959.199381,13740,-2436,-1496,nan,0.000000
2,5,12,1,14766736,372899831,-1082397823372497634,1361365959.199381,15844,-2488,-664,nan,0.000000
2,5,12,1,14766736,372899831,-1082397823372495013,1361365959.199381,15304,-3008,-328,nan,0.000000
2,5,12,1,14766736,372899831,-1082397823372492392,1361365959.199381,15344,-3244,256,nan,0.000000
2,5,13,1,14766736,372899867,-1082397823372489771,1361365959.200479,16516,-2852,320,nan,0.000000
2,5,13,1,14766736,372899867,-1082397823372487150,1361365959.200479,17252,-3252,952,nan,0.000000
2,5,13,1,14766736,372899867,-1082397823372484529,1361365959.200479,18064,-2996,-436,nan,0.000000
2,5,13,1,14766736,372899867,-1082397823372481908,1361365959.200479,15012,-6368,-1592,nan,0.000000
2,5,13,1,14766736,372899867,-1082397823372479287,1361365959.200479,12512,-6508,-1188,nan,0.000000
2,5,14,1,14766736,372899899,-1082397823372476666,1361365959.201128,16188,-3940,-804,nan,0.000000
2,5,14,1,14766736,372899899,-1082397823372474045,1361365959.201128,15584,-3924,-180,nan,0.000000
2,5,14,1,14766736,372899899,-1082397823372471424,1361365959.201128,13912,-4824,472,nan,0.000000
2,5,14,1,14766736,372899899,-1082397823372468803,1361365959.201128,15368,-2488,624,nan,0.000000
2,5,14,1,14766736,372899899,-1082397823372466182,1361365959.201128,15520,-3724,568,nan,0.000000
2,5,15,1,14766736,372899931,-1082397823372463561,1361365959.202577,15400,-3168,276,nan,0.000000
2,5,15,1,14766736,372899931,-1082397823372460940,1361365959.202577,16156,-3316,880,nan,0.000000
2,5,15,1,14766736,372899931,-1082397823372458319,1361365959.202577,17524,-2460,680,nan,0.000000
2,5,15,1,14766736,372899931,-1082397823372455698,1361365959.202577,17132,-6284,-1116,nan,0.000000
2,5,15,1,14766736,372899931,-1082397823372453077,1361365959.202577,14100,-5452,-1584,nan,0.000000
2,5,0,1,14766736,372899963,-1082397823372450456,1361365961.678811,14556,-4240,-2780,nan,0.000000
2,5,0,1,14766736,372899963,-1082397823372447835,1361365961.678811,15780,-6504,-728,nan,0.000000
2,5,0,1,14766736,372899963,-1082397823372445214,1361365961.678811,13644,-3012,-1960,nan,0.000000
2,5,0,1,14766736,372899963,-1082397823372442593,1361365961.678811,15976,-3688,-864,nan,0.000000
2,5,0,1,14766736,372899963,-1082397823372439972,1361365961.678811,14820,-3432,-600,nan,0.000000
1,5,1,0,14848053,372981086,2953685046990284021,1361365961.680010,16112,-3480,252,nan,0.000000
1,5,1,0,14848053,372981086,2953685046990286642,1361365961.680010,16424,-2980,384,nan,0.000000
2,5,2,0,14848053,372981118,2953685046990289263,1361365961.680900,17512,-3612,704,nan,0.000000
2,5,2,0,14848053,372981118,2953685046990291884,1361365961.680900,17652,-4624,-1236,nan,0.000000
2,5,2,0,14848053,372981118,2953685046990294505,1361365961.680900,12160,-7612,-1732,nan,0.000000
2,5,2,0,14848053,372981118,2953685046990297126,1361365961.680900,14588,-5896,-1000,nan,0.000000
2,5,2,0,14848053,372981118,2953685046990299747,1361365961.680900,16304,-4316,-468,nan,0.000000
2,5,3,0,14848053,372981150,2953685046990302368,1361365961.681760,14528,-5048,-104,nan,0.000000
2,5,3,0,14848053,372981150,2953685046990304989,1361365961.681760,13944,-4460,456,nan,0.000000
2,5,3,0,14848053,372981150,2953685046990307610,1361365961.681760,15224,-3436,920,nan,0.000000
2,5,3,0,14848053,372981150,2953685046990310231,1361365961.681760,15332,-3684,892,nan,0.000000
2,5,3,0,14848053,372981150,2953685046990312852,1361365961.681760,15276,-4292,784,nan,0.000000
2,5,4,0,14848053,372981182,2953685046990315473,1361365961.682753,16828,-3132,1296,nan,0.000000
2,5,4,0,14848053,372981182,2953685046990318094,1361365961.682753,17824,-3972,264,nan,0.000000
2,5,4,0,14848053,372981182,2953685046990320715,1361365961.682753,17092,-7416,-908,nan,0.000000
2,5,4,0,14848053,372981182,2953685046990323336,1361365961.682753,11848,-3312,-3128,nan,0.000000
2,5,4,0,14848053,372981182,2953685046990325957,1361365961.682753,16948,-6380,-1052,nan,0.000000
2,5,5,0,14848053,372981214,2953685046990328578,1361365961.683429,13144,-5296,-1728,nan,0.000000
2,5,5,0,14848053,372981214,2953685046990331199,1361365961.683429,15516,-3004,-948,nan,0.000000
2,5,5,0,14848053,372981214,2953685046990333820,1361365961.683429,14788,-3372,-1128,nan,0.000000
2,5,5,0,14848053,372981214,2953685046990336441,1361365961.683429,16052,-3676,-140,nan,0.000000
2,5,5,0,14848053,372981214,2953685046990339062,1361365961.683429,15956,-2820,364,nan,0.000000
2,5,6,0,14848053,372981246,2953685046990341683,1361365961.684412,15716,-2408,68,nan,0.000000
2,5,6,0,14848053,372981246,2953685046990344304,1361365961.684412,16232,-3340,392,nan,0.000000
2,5,6,0,14848053,372981246,2953685046990346925,1361365961.684412,17852,-2784,272,nan,0.000000
2,5,6,0,14848053,372981246,2953685046990349546,1361365961.684412,15948,-6568,-980,nan,0.000000
2,5,6,0,14848053,372981246,2953685046990352167,1361365961.684412,11500,-6772,-1248,nan,0.000000
2,5,7,0,14848053,372981278,2953685046990354788,1361365964.160762,18224,-4732,-496,nan,0.000000
2,5,7,0,14848053,372981278,2953685046990357409,1361365964.160762,15108,-3532,172,nan,0.000000
2,5,7,0,14848053,372981278,2953685046990360030,1361365964.160762,13036,-5568,376,nan,0.000000
2,5,7,0,14848053,372981278,2953685046990362651,1361365964.160762,15576,-3480,876,nan,0.000000
2,5,7,0,14848053,372981278,2953685046990365272,1361365964.160762,14868,-4156,704,nan,0.000000
1,5,8,0,14929370,373062408,-6052779685128236802,1361365964.162021,15736,-3936,1436,nan,0.000000
1,5,8,0,14929370,373062408,-6052779685128234181,1361365964.162021,17328,-2892,2044,nan,0.000000
2,5,9,0,14929370,373062439,-6052779685128231560,1361365964.162499,17076,-4588,1152,nan,0.000000
2,5,9,0,14929370,373062439,-6052779685128228939,1361365964.162499,17244,-5852,-32,nan,0.000000
2,5,9,0,14929370,373062439,-6052779685128226318,1361365964.162499,12256,-2232,-2592,nan,0.000000
2,5,9,0,14929370,373062439,-6052779685128223697,1361365964.162499,16476,-5452,-1796,nan,0.000000
2,5,9,0,14929370,373062439,-6052779685128221076,1361365964.162499,15024,-4656,-488,nan,0.000000
2,5,10,0,14929370,373062472,-6052779685128218455,1361365964.163349,14728,-1736,-1172,nan,0.000000
2,5,10,0,14929370,373062472,-6052779685128215834,1361365964.163349,15508,-2120,-1072,nan,0.000000
2,5,10,0,14929370,373062472,-6052779685128213213,1361365964.163349,15576,-2008,-512,nan,0.000000
2,5,10,0,14929370,373062472,-6052779685128210592,1361365964.163349,15668,-2704,60,nan,0.000000
2,5,10,0,14929370,373062472,-6052779685128207971,1361365964.163349,16688,-2520,468,nan,0.000000
2,5,11,0,14929370,373062503,-6052779685128205350,1361365964.164375,17884,-1404,1040,nan,0.000000
2,5,11,0,14929370,373062503,-6052779685128202729,1361365964.164375,18288,-1696,-872,nan,0.000000
2,5,11,0,14929370,373062503,-6052779685128200108,1361365964.164375,15828,-5764,-2136,nan,0.000000
2,5,11,0,14929370,373062503,-6052779685128197487,1361365964.164375,11048,-6140,-1912,nan,0.000000
2,5,11,0,14929370,373062503,-6052779685128194866,1361365964.164375,16368,-4440,-812,nan,0.000000
2,5,12,0,14929370,373062535,-6052779685128192245,1361365964.165319,16792,-3844,52,nan,0.000000
2,5,12,0,14929370,373062535,-6052779685128189624,1361365964.165319,13780,-4856,-288,nan,0.000000
2,5,12,0,14929370,373062535,-6052779685128187003,1361365964.165319,14936,-3224,248,nan,0.000000
2,5,12,0,14929370,373062535,-6052779685128184382,1361365964.165319,14260,-4052,144,nan,0.000000
2,5,12,0,14929370,373062535,-6052779685128181761,1361365964.165319,14840,-3596,-12,nan,0.000000
2,5,13,0,14929370,373062567,-6052779685128179140,1361365964.166382,16476,-4720,1040,nan,0.000000
2,5,13,0,14929370,373062567,-6052779685128176519,1361365964.166382,18572,-1876,1600,nan,0.000000
2,5,13,0,14929370,373062567,-6052779685128173898,1361365964.166382,17796,-5612,-432,nan,0.000000
2,5,13,0,14929370,373062567,-6052779685128171277,1361365964.166382,14576,-5948,-1644,nan,0.000000
2,5,13,0,14929370,373062567,-6052779685128168656,1361365964.166382,12560,-2628,-3212,nan,0.000000
2,5,14,0,14929370,373062599,-6052779685128166035,1361365966.646639,17496,-6956,-140,nan,0.000000
2,5,14,0,14929370,373062599,-6052779685128163414,1361365966.646639,13460,-2468,-1988,nan,0.000000
2,5,14,0,14929370,373062599,-6052779685128160793,1361365966.646639,15492,-1724,-1448,nan,0.000000
2,5,14,0,14929370,373062599,-6052779685128158172,1361365966.646639,15044,-2800,-1272,nan,0.000000
2,5,14,0,14929370,373062599,-6052779685128155551,1361365966.646639,15984,-2248,-484,nan,0.000000
1,5,15,0,15010688,373143871,4393363650618094847,1361365966.648321,17880,-2176,764,nan,0.000000
1,5,15,0,15010688,373143871,4393363650618097468,1361365966.648321,17464,-1860,-932,nan,0.000000
2,5,0,0,15010688,373143927,4393363650618100089,1361365966.648770,15392,-7552,-2036,nan,0.000000
2,5,0,0,15010688,373143927,4393363650618102710,1361365966.648770,12300,-7192,-1628,nan,0.000000
2,5,0,0,15010688,373143927,4393363650618105331,1361365966.648770,16608,-3844,-928,nan,0.000000
2,5,0,0,15010688,373143927,4393363650618107952,1361365966.648770,15672,-3448,-420,nan,0.000000
2,5,0,0,15010688,373143927,4393363650618110573,1361365966.648770,13500,-5104,24,nan,0.000000
2,5,1,0,15010688,373143959,4393363650618113194,1361365966.650328,15228,-2588,772,nan,0.000000
2,5,1,0,15010688,373143959,4393363650618115815,1361365966.650328,14992,-3712,852,nan,0.000000
2,5,1,0,15010688,373143959,4393363650618118436,1361365966.650328,15920,-3336,880,nan,0.000000
2,5,1,0,15010688,373143959,4393363650618121057,1361365966.650328,17504,-3180,1304,nan,0.000000
2,5,1,0,15010688,373143959,4393363650618123678,1361365966.650328,19140,-4400,-376,nan,0.000000
2,5,2,0,15010688,373143991,4393363650618126299,1361365966.651587,14868,-5400,-1928,nan,0.000000
2,5,2,0,15010688,373143991,4393363650618128920,1361365966.651587,12584,-1844,-3644,nan,0.000000
2,5,2,0,15010688,373143991,4393363650618131541,1361365966.651587,16540,-6040,-1568,nan,0.000000
2,5,2,0,15010688,373143991,4393363650618134162,1361365966.651587,14376,-2216,-2600,nan,0.000000
2,5,2,0,15010688,373143991,4393363650618136783,1361365966.651587,15608,-1632,-1892,nan,0.000000
2,5,3,0,15010688,373144023,4393363650618139404,1361365966.652431,15480,-2984,-1864,nan,0.000000
2,5,3,0,15010688,373144023,4393363650618142025,1361365966.652431,15224,-1888,-1132,nan,0.000000
2,5,3,0,15010688,373144023,4393363650618144646,1361365966.652431,15752,-2916,-824,nan,0.000000
2,5,3,0,15010688,373144023,4393363650618147267,1361365966.652431,17704,-2428,220,nan,0.000000
2,5,3,0,15010688,373144023,4393363650618149888,1361365966.652431,18568,-2140,180,nan,0.000000
2,5,4,0,15010688,373144055,4393363650618152509,1361365966.653322,17336,-5732,-3384,nan,0.000000
2,5,4,0,15010688,373144055,4393363650618155130,1361365966.653322,11032,-6904,-2276,nan,0.000000
2,5,4,0,15010688,373144055,4393363650618157751,1361365966.653322,16088,-3168,-1496,nan,0.000000
2,5,4,0,15010688,373144055,4393363650618160372,1361365966.653322,16052,-3876,-148,nan,0.000000
2,5,4,0,15010688,373144055,4393363650618162993,1361365966.653322,13948,-4076,-100,nan,0.000000
2,5,5,0,15010688,373144087,4393363650618165614,1361365969.130655,14664,-3044,448,nan,0.000000
2,5,5,0,15010688,373144087,4393363650618168235,1361365969.130655,14988,-2788,812,nan,0.000000
2,5,5,0,15010688,373144087,4393363650618170856,1361365969.130655,15372,-3380,392,nan,0.000000
2,5,5,0,15010688,373144087,4393363650618173477,1361365969.130655,17008,-3068,1040,nan,0.000000
2,5,5,0,15010688,373144087,4393363650618176098,1361365969.130655,19616,-1944,212,nan,0.000000
1,5,6,0,15092004,373225281,3171410403544186881,1361365969.132277,11372,-1508,-3580,nan,0.000000
1,5,6,0,15092004,373225281,3171410403544189502,1361365969.132277,16432,-6584,-2304,nan,0.000000
2,5,7,0,15092004,373225313,3171410403544192123,1361365969.132861,14976,-4596,-1504,nan,0.000000
2,5,7,0,15092004,373225313,3171410403544194744,1361365969.132861,15052,-880,-1408,nan,0.000000
2,5,7,0,15092004,373225313,3171410403544197365,1361365969.132861,15088,-3136,-1184,nan,0.000000
2,5,7,0,15092004,373225313,3171410403544199986,1361365969.132861,15324,-2584,-444,nan,0.000000
2,5,7,0,15092004,373225313,3171410403544202607,1361365969.132861,15816,-1748,340,nan,0.000000
2,5,8,0,15092004,373225345,3171410403544205228,1361365969.134261,16892,-2600,592,nan,0.000000
2,5,8,0,15092004,373225345,3171410403544207849,1361365969.134261,16732,-3360,1556,nan,0.000000
2,5,8,0,15092004,373225345,3171410403544210470,1361365969.134261,17776,-1796,40,nan,0.000000
2,5,8,0,15092004,373225345,3171410403544213091,1361365969.134261,16344,-7672,-1240,nan,0.000000
2,5,8,0,15092004,373225345,3171410403544215712,1361365969.134261,11636,-6424,-1528,nan,0.000000
2,5,9,0,15092004,373225377,3171410403544218333,1361365969.135090,15684,-3996,-1252,nan,0.000000
2,5,9,0,15092004,373225377,3171410403544220954,1361365969.135090,16676,-4548,496,nan,0.000000
2,5,9,0,15092004,373225377,3171410403544223575,1361365969.135090,13348,-4736,-68,nan,0.000000
2,5,9,0,15092004,373225377,3171410403544226196,1361365969.135090,14908,-3664,960,nan,0.000000
2,5,9,0,15092004,373225377,3171410403544228817,1361365969.135090,15008,-3132,584,nan,0.000000
2,5,10,0,15092004,373225409,3171410403544231438,1361365969.136243,15588,-3180,776,nan,0.000000
2,5,10,0,15092004,373225409,3171410403544234059,1361365969.136243,15900,-3700,540,nan,0.000000
2,5,10,0,15092004,373225409,3171410403544236680,1361365969.136243,17020,-2312,1660,nan,0.000000
2,5,10,0,15092004,373225409,3171410403544239301,1361365969.136243,17036,-3416,532,nan,0.000000
2,5,10,0,15092004,373225409,3171410403544241922,1361365969.136243,18128,-6224,-368,nan,0.000000
2,5,11,0,15092004,373225440,3171410403544244543,1361365969.138299,13164,-3540,-2504,nan,0.000000
2,5,11,0,15092004,373225440,3171410403544247164,1361365969.138299,15160,-6336,-2656,nan,0.000000
2,5,11,0,15092004,373225440,3171410403544249785,1361365969.138299,14976,-5840,-1028,nan,0.000000
2,5,11,0,15092004,373225440,3171410403544252406,1361365969.138299,14424,-2384,-1320,nan,0.000000
2,5,11,0,15092004,373225440,3171410403544255027,1361365969.138299,14952,-2456,-1112,nan,0.000000
2,5,12,0,15092004,373225507,3171410403544257648,1361365971.606577,15484,-3208,-4,nan,0.000000
2,5,12,0,15092004,373225507,3171410403544260269,1361365971.606577,15680,-2736,636,nan,0.000000
2,5,12,0,15092004,373225507,3171410403544262890,1361365971.606577,16580,-2388,948,nan,0.000000
2,5,12,0,15092004,373225507,3171410403544265511,1361365971.606577,17656,-2232,1232,nan,0.000000
2,5,12,0,15092004,373225507,3171410403544268132,1361365971.606577,17168,-2872,-212,nan,0.000000
1,5,13,0,15173321,373306389,8935793624931499263,1361365971.607753,11964,-6340,-1120,nan,0.000000
1,5,13,3,15173321,373306389,8935793624931501884,1361365971.607753,16624,-4652,-476,nan,0.000000
2,5,14,3,15173321,373306421,8935793624931504505,1361365971.608482,15840,-3796,288,nan,0.000000
2,5,14,3,15173321,373306421,8935793624931507126,1361365971.608482,13144,-5008,460,nan,0.000000
2,5,14,3,15173321,373306421,8935793624931509747,1361365971.608482,16112,-3048,1392,nan,0.000000
2,5,14,3,15173321,373306421,8935793624931512368,1361365971.608482,14720,-3596,1348,nan,0.000000
2,5,14,3,15173321,373306421,8935793624931514989,1361365971.608482,15332,-3048,1560,nan,0.000000
2,5,15,3,15173321,373306453,8935793624931517610,1361365971.609314,16116,-3380,1840,nan,0.000000
2,5,15,3,15173321,373306453,8935793624931520231,1361365971.609314,18564,-2336,2220,nan,0.000000
2,5,15,3,15173321,373306453,8935793624931522852,1361365971.609314,17388,-5772,856,nan,0.000000
2,5,15,3,15173321,373306453,8935793624931525473,1361365971.609314,14360,-4328,-924,nan,0.000000
2,5,15,3,15173321,373306453,8935793624931528094,1361365971.609314,13764,-3468,-2696,nan,0.000000
2,5,0,3,15173321,373306485,8935793624931530715,1361365971.610205,16760,-7120,-308,nan,0.000000
2,5,0,3,15173321,373306485,8935793624931533336,1361365971.610205,13396,-2324,-1856,nan,0.000000
2,5,0,3,15173321,373306485,8935793624931535957,1361365971.610205,15992,-2056,-488,nan,0.000000
2,5,0,3,15173321,373306485,8935793624931538578,1361365971.610205,16192,-1884,-304,nan,0.000000
2,5,0,3,15173321,373306485,8935793624931541199,1361365971.610205,15608,-3092,396,nan,0.000000
2,5,1,3,15173321,373306517,8935793624931543820,1361365971.610857,16024,-1048,872,nan,0.000000
2,5,1,3,15173321,373306517,8935793624931546441,1361365971.610857,15764,-1488,844,nan,0.000000
2,5,1,3,15173321,373306517,8935793624931549062,1361365971.610857,16640,-2336,736,nan,0.000000
2,5,1,3,15173321,373306517,8935793624931551683,1361365971.610857,17572,-2564,1308,nan,0.000000
2,5,1,3,15173321,373306517,8935793624931554304,1361365971.610857,17044,-2456,352,nan,0.000000
2,5,2,3,15173321,373306549,8935793624931556925,1361365971.612179,15768,-3988,-40,nan,0.000000
2,5,2,3,15173321,373306549,8935793624931559546,1361365971.612179,13888,-6840,-752,nan,0.000000
2,5,2,3,15173321,373306549,8935793624931562167,1361365971.612179,13672,-6260,224,nan,0.000000
2,5,2,3,15173321,373306549,8935793624931564788,1361365971.612179,17024,-4644,316,nan,0.000000
2,5,2,3,15173321,373306549,8935793624931567409,1361365971.612179,15192,-4932,876,nan,0.000000
2,5,3,3,15173321,373306581,8935793624931570030,1361365974.100442,13472,-4604,1068,nan,0.000000
2,5,3,3,15173321,373306581,8935793624931572651,1361365974.100442,15428,-2928,1568,nan,0.000000
2,5,3,3,15173321,373306581,8935793624931575272,1361365974.100442,15532,-4464,1800,nan,0.000000
2,5,3,3,15173321,373306581,8935793624931577893,1361365974.100442,14768,-3704,1396,nan,0.000000
2,5,3,3,15173321,373306581,8935793624931580514,1361365974.100442,15056,-4476,1876,nan,0.000000
1,5,4,0,15254637,373388141,2307691237865171972,1361365974.102155,15896,-3732,2408,nan,0.000000
1,5,4,0,15254637,373388141,2307691237865174593,1361365974.102155,17220,-4720,1564,nan,0.000000
2,5,5,0,15254637,373388174,2307691237865177214,1361365974.102858,18344,-6740,-232,nan,0.000000
2,5,5,0,15254637,373388174,2307691237865179835,1361365974.102858,12196,-3264,-2500,nan,0.000000
2,5,5,0,15254637,373388174,2307691237865182456,1361365974.102858,15076,-5540,-2792,nan,0.000000
2,5,5,0,15254637,373388174,2307691237865185077,1361365974.102858,16076,-4076,-1212,nan,0.000000
2,5,5,0,15254637,373388174,2307691237865187698,1361365974.102858,14844,-2204,-1308,nan,0.000000
2,5,6,0,15254637,373388205,2307691237865190319,1361365974.104180,15764,-2412,-752,nan,0.000000
2,5,6,0,15254637,373388205,2307691237865192940,1361365974.104180,16208,-2472,-420,nan,0.000000
2,5,6,0,15254637,373388205,2307691237865195561,1361365974.104180,15800,-2156,12,nan,0.000000
2,5,6,0,15254637,373388205,2307691237865198182,1361365974.104180,15440,-1256,376,nan,0.000000
2,5,6,0,15254637,373388205,2307691237865200803,1361365974.104180,15784,-1508,496,nan,0.000000
2,5,7,0,15254637,373388237,2307691237865203424,1361365974.105115,16608,-1376,1184,nan,0.000000
2,5,7,0,15254637,373388237,2307691237865206045,1361365974.105115,18128,-1660,1248,nan,0.000000
2,5,7,0,15254637,373388237,2307691237865208666,1361365974.105115,17932,-4956,-572,nan,0.000000
2,5,7,0,15254637,373388237,2307691237865211287,1361365974.105115,13940,-7820,-828,nan,0.000000
2,5,7,0,15254637,373388237,2307691237865213908,1361365974.105115,12448,-3756,-1176,nan,0.000000
2,5,8,0,15254637,373388269,2307691237865216529,1361365974.106141,17384,-4596,116,nan,0.000000
2,5,8,0,15254637,373388269,2307691237865219150,1361365974.106141,15528,-4996,-56,nan,0.000000
2,5,8,0,15254637,373388269,2307691237865221771,1361365974.106141,13896,-4644,668,nan,0.000000
2,5,8,0,15254637,373388269,2307691237865224392,1361365974.106141,15092,-2460,1068,nan,0.000000
2,5,8,0,15254637,373388269,2307691237865227013,1361365974.106141,15100,-3992,1128,nan,0.000000
2,5,9,0,15254637,373388301,2307691237865229634,1361365974.107113,15340,-4124,636,nan,0.000000
2,5,9,0,15254637,373388301,2307691237865232255,1361365974.107113,16064,-2764,1856,nan,0.000000
2,5,9,0,15254637,373388301,2307691237865234876,1361365974.107113,15900,-2192,2160,nan,0.000000
2,5,9,0,15254637,373388301,2307691237865237497,1361365974.107113,14888,-3136,2488,nan,0.000000
2,5,9,0,15254637,373388301,2307691237865240118,1361365974.107113,16728,-4100,688,nan,0.000000
2,5,10,0,15254637,373388333,2307691237865242739,1361365976.568419,20364,-6548,220,nan,0.000000
2,5,10,0,15254637,373388333,2307691237865245360,1361365976.568419,12888,-1268,-1436,nan,0.000000
2,5,10,0,15254637,373388333,2307691237865247981,1361365976.568419,14460,-4516,-2576,nan,0.000000
2,5,10,0,15254637,373388333,2307691237865250602,1361365976.568419,15756,-6440,-1380,nan,0.000000
2,5,10,0,15254637,373388333,2307691237865253223,1361365976.568419,15560,-1620,-1256,nan,0.000000
1,5,11,0,15335954,373469012,7276142421626510336,1361365976.570141,15844,-3272,-1372,nan,0.000000
1,5,11,3,15335954,373469012,7276142421626512957,1361365976.570141,15788,-2844,-524,nan,0.000000
2,5,12,3,15335954,373469044,7276142421626515578,1361365976.570852,15868,-3052,-1000,nan,0.000000
2,5,12,3,15335954,373469044,7276142421626518199,1361365976.570852,16348,-3472,136,nan,0.000000
2,5,12,3,15335954,373469044,7276142421626520820,1361365976.570852,16076,-1292,124,nan,0.000000
2,5,12,3,15335954,373469044,7276142421626523441,1361365976.570852,16436,128,-16,nan,0.000000
2,5,12,3,15335954,373469044,7276142421626526062,1361365976.570852,18372,-3552,-200,nan,0.000000
2,5,13,3,15335954,373469075,7276142421626528683,1361365976.572071,16128,-3568,-544,nan,0.000000
2,5,13,3,15335954,373469075,7276142421626531304,1361365976.572071,12452,-6168,-1436,nan,0.000000
2,5,13,3,15335954,373469075,7276142421626533925,1361365976.572071,14764,-7240,-228,nan,0.000000
2,5,13,3,15335954,373469075,7276142421626536546,1361365976.572071,17372,-4092,252,nan,0.000000
2,5,13,3,15335954,373469075,7276142421626539167,1361365976.572071,13648,-5100,36,nan,0.000000
2,5,14,3,15335954,373469108,7276142421626541788,1361365976.572840,14828,-4380,704,nan,0.000000
2,5,14,3,15335954,373469108,7276142421626544409,1361365976.572840,15264,-4144,836,nan,0.000000
2,5,14,3,15335954,373469108,7276142421626547030,1361365976.572840,14984,-3744,1484,nan,0.000000
2,5,14,3,15335954,373469108,7276142421626549651,1361365976.572840,14972,-3572,1328,nan,0.000000
2,5,14,3,15335954,373469108,7276142421626552272,1361365976.572840,16452,-3364,1852,nan,0.000000
2,5,15,3,15335954,373469139,7276142421626554893,1361365976.574063,17612,-2520,2200,nan,0.000000
2,5,15,3,15335954,373469139,7276142421626557514,1361365976.574063,17832,-6180,512,nan,0.000000
2,5,15,3,15335954,373469139,7276142421626560135,1361365976.574063,13740,-5104,-1588,nan,0.000000
2,5,15,3,15335954,373469139,7276142421626562756,1361365976.574063,14388,-4704,-1992,nan,0.000000
2,5,15,3,15335954,373469139,7276142421626565377,1361365976.574063,15864,-7044,-488,nan,0.000000
2,5,0,3,15335954,373469172,7276142421626567998,1361365976.574878,14144,-2372,-1816,nan,0.000000
2,5,0,3,15335954,373469172,7276142421626570619,1361365976.574878,16164,-2544,-376,nan,0.000000
2,5,0,3,15335954,373469172,7276142421626573240,1361365976.574878,15512,-2984,300,nan,0.000000
2,5,0,3,15335954,373469172,7276142421626575861,1361365976.574878,15496,-2728,1788,nan,0.000000
2,5,0,3,15335954,373469172,7276142421626578482,1361365976.574878,15448,-2308,1508,nan,0.000000
2,5,1,3,15335954,373469203,7276142421626581103,1361365979.050367,15760,-2228,1380,nan,0.000000
2,5,1,3,15335954,373469203,7276142421626583724,1361365979.050367,16756,-2084,2016,nan,0.000000
2,5,1,3,15335954,373469203,7276142421626586345,1361365979.050367,18268,-2768,1888,nan,0.000000
2,5,1,3,15335954,373469203,7276142421626588966,1361365979.050367,16828,-4020,-204,nan,0.000000
2,5,1,3,15335954,373469203,7276142421626591587,1361365979.050367,12824,-7392,-1572,nan,0.000000
1,5,2,0,15417272,373550332,-2303629729011244027,1361365979.052042,17428,-3172,-908,nan,0.000000
1,5,2,0,15417272,373550332,-2303629729011241406,1361365979.052042,15300,-4336,252,nan,0.000000
2,5,3,0,15417272,373550364,-2303629729011238785,1361365979.052735,13876,-4128,288,nan,0.000000
2,5,3,0,15417272,373550364,-2303629729011236164,1361365979.052735,15072,-2796,604,nan,0.000000
2,5,3,0,15417272,373550364,-2303629729011233543,1361365979.052735,15420,-2696,1132,nan,0.000000
2,5,3,0,15417272,373550364,-2303629729011230922,1361365979.052735,15800,-3152,1152,nan,0.000000
2,5,3,0,15417272,373550364,-2303629729011228301,1361365979.052735,17644,-2360,2188,nan,0.000000
2,5,4,0,15417272,373550395,-2303629729011225680,1361365979.054035,18444,-2832,364,nan,0.000000
2,5,4,0,15417272,373550395,-2303629729011223059,1361365979.054035,17020,-6992,-1272,nan,0.000000
2,5,4,0,15417272,373550395,-2303629729011220438,1361365979.054035,12688,-3768,-2232,nan,0.000000
2,5,4,0,15417272,373550395,-2303629729011217817,1361365979.054035,15452,-6996,-12,nan,0.000000
2,5,4,0,15417272,373550395,-2303629729011215196,1361365979.054035,13884,-4376,-1152,nan,0.000000
2,5,5,0,15417272,373550428,-2303629729011212575,1361365979.055075,15644,-600,-604,nan,0.000000
2,5,5,0,15417272,373550428,-2303629729011209954,1361365979.055075,15096,-3532,-684,nan,0.000000
2,5,5,0,15417272,373550428,-2303629729011207333,1361365979.055075,15300,-2956,244,nan,0.000000
2,5,5,0,15417272,373550428,-2303629729011204712,1361365979.055075,15988,-2252,844,nan,0.000000
2,5,5,0,15417272,373550428,-2303629729011202091,1361365979.055075,16636,-2832,1024,nan,0.000000
2,5,6,0,15417272,373550459,-2303629729011199470,1361365979.056044,17916,-2680,1512,nan,0.000000
2,5,6,0,15417272,373550459,-2303629729011196849,1361365979.056044,17248,-3564,-664,nan,0.000000
2,5,6,0,15417272,373550459,-2303629729011194228,1361365979.056044,14380,-7364,-1012,nan,0.000000
2,5,6,0,15417272,373550459,-2303629729011191607,1361365979.056044,13076,-6068,-1360,nan,0.000000
2,5,6,0,15417272,373550459,-2303629729011188986,1361365979.056044,16464,-3864,-332,nan,0.000000
2,5,7,0,15417272,373550492,-2303629729011186365,1361365979.056821,15840,-3616,80,nan,0.000000
2,5,7,0,15417272,373550492,-2303629729011183744,1361365979.056821,13868,-4436,1160,nan,0.000000
2,5,7,0,15417272,373550492,-2303629729011181123,1361365979.056821,15216,-1796,924,nan,0.000000
2,5,7,0,15417272,373550492,-2303629729011178502,1361365979.056821,15560,-2800,1232,nan,0.000000
2,5,7,0,15417272,373550492,-2303629729011175881,1361365979.056821,15292,-3292,808,nan,0.000000
2,5,8,0,15417272,373550523,-2303629729011173260,1361365981.532379,16872,-3312,1824,nan,0.000000
2,5,8,0,15417272,373550523,-2303629729011170639,1361365981.532379,18600,-2212,1224,nan,0.000000
2,5,8,0,15417272,373550523,-2303629729011168018,1361365981.532379,17340,-6088,-24,nan,0.000000
2,5,8,0,15417272,373550523,-2303629729011165397,1361365981.532379,12852,-2236,-2428,nan,0.000000
2,5,8,0,15417272,373550523,-2303629729011162776,1361365981.532379,16148,-5492,-1132,nan,0.000000
1,5,9,0,15498589,373631654,-4033997147467145209,1361365981.533995,14664,-804,-800,nan,0.000000
1,5,9,0,15498589,373631654,-4033997147467142588,1361365981.533995,15912,-1636,-676,nan,0.000000
2,5,10,0,15498589,373631686,-4033997147467139967,1361365981.534577,15560,-3372,332,nan,0.000000
2,5,10,0,15498589,373631686,-4033997147467137346,1361365981.534577,15372,-1904,944,nan,0.000000
2,5,10,0,15498589,373631686,-4033997147467134725,1361365981.534577,15992,-2560,1292,nan,0.000000
2,5,10,0,15498589,373631686,-4033997147467132104,1361365981.534577,17092,-1976,1568,nan,0.000000
2,5,10,0,15498589,373631686,-4033997147467129483,1361365981.534577,18140,-1236,1604,nan,0.000000
2,5,11,0,15498589,373631717,-4033997147467126862,1361365981.535970,17244,-3132,-524,nan,0.000000
2,5,11,0,15498589,373631717,-4033997147467124241,1361365981.535970,13252,-7328,-1168,nan,0.000000
2,5,11,0,15498589,373631717,-4033997147467121620,1361365981.535970,13976,-5552,-924,nan,0.000000
2,5,11,0,15498589,373631717,-4033997147467118999,1361365981.535970,16364,-3372,220,nan,0.000000
2,5,11,0,15498589,373631717,-4033997147467116378,1361365981.535970,15900,-3416,-204,nan,0.000000
2,5,12,0,15498589,373631750,-4033997147467113757,1361365981.536874,14432,-5040,856,nan,0.000000
2,5,12,0,15498589,373631750,-4033997147467111136,1361365981.536874,15048,-3212,732,nan,0.000000
2,5,12,0,15498589,373631750,-4033997147467108515,1361365981.536874,15288,-2736,600,nan,0.000000
2,5,12,0,15498589,373631750,-4033997147467105894,1361365981.536874,15156,-3212,744,nan,0.000000
2,5,12,0,15498589,373631750,-4033997147467103273,1361365981.536874,15716,-3196,596,nan,0.000000
2,5,13,0,15498589,373631781,-4033997147467100652,1361365981.538001,16812,-3068,1544,nan,0.000000
2,5,13,0,15498589,373631781,-4033997147467098031,1361365981.538001,17128,-3396,1180,nan,0.000000
2,5,13,0,15498589,373631781,-4033997147467095410,1361365981.538001,17972,-6612,-184,nan,0.000000
2,5,13,0,15498589,373631781,-4033997147467092789,1361365981.538001,13288,-4216,-1900,nan,0.000000
2,5,13,0,15498589,373631781,-4033997147467090168,1361365981.538001,14332,-4884,-2532,nan,0.000000
2,5,14,0,15498589,373631814,-4033997147467087547,1361365981.540408,15460,-6828,-800,nan,0.000000
2,5,14,0,15498589,373631814,-4033997147467084926,1361365981.540408,14312,-2272,-1448,nan,0.000000
2,5,14,0,15498589,373631814,-4033997147467082305,1361365981.540408,15408,-2252,-1160,nan,0.000000
2,5,14,0,15498589,373631814,-4033997147467079684,1361365981.540408,15652,-3604,-600,nan,0.000000
2,5,14,0,15498589,373631814,-4033997147467077063,1361365981.540408,15544,-2492,12,nan,0.000000
2,5,15,0,15498589,373631845,-4033997147467074442,1361365984.014279,16068,-2924,228,nan,0.000000
2,5,15,0,15498589,373631845,-4033997147467071821,1361365984.014279,16796,-3332,760,nan,0.000000
2,5,15,0,15498589,373631845,-4033997147467069200,1361365984.014279,17980,-3016,1028,nan,0.000000
2,5,15,0,15498589,373631845,-4033997147467066579,1361365984.014279,17464,-4440,-960,nan,0.000000
2,5,15,0,15498589,373631845,-4033997147467063958,1361365984.014279,12208,-7528,-800,nan,0.000000
1,5,0,0,15579907,373712994,-575619683416153088,1361365984.015920,16312,-4156,236,nan,0.000000
1,5,0,0,15579907,373712994,-575619683416150467,1361365984.015920,14908,-3896,-204,nan,0.000000
2,5,1,0,15579907,373713026,-575619683416147846,1361365984.016601,14512,-4504,672,nan,0.000000
2,5,1,0,15579907,373713026,-575619683416145225,1361365984.016601,15652,-3988,828,nan,0.000000
2,5,1,0,15579907,373713026,-575619683416142604,1361365984.016601,15300,-3156,760,nan,0.000000
2,5,1,0,15579907,373713026,-575619683416139983,1361365984.016601,15012,-2316,224,nan,0.000000
2,5,1,0,15579907,373713026,-575619683416137362,1361365984.016601,15720,-3524,988,nan,0.000000
2,5,2,0,15579907,373713057,-575619683416134741,1361365984.017852,16332,-1932,1020,nan,0.000000
2,5,2,0,15579907,373713057,-575619683416132120,1361365984.017852,17604,-2804,824,nan,0.000000
2,5,2,0,15579907,373713057,-575619683416129499,1361365984.017852,17876,-4480,76,nan,0.000000
2,5,2,0,15579907,373713057,-575619683416126878,1361365984.017852,14772,-4160,-636,nan,0.000000
2,5,2,0,15579907,373713057,-575619683416124257,1361365984.017852,14532,-4168,-1364,nan,0.000000
