type,ID,seq,packetLoss,nodeTimestamp,bsTimestamp,syncTimestamp,systemTime,accelX,accelY,accelZ,cannula,voltage
1,5,9,0,11964587,14376112,-6557767796799904515,1361426809.795978,14824,-6180,2288,nan,0.000000
1,5,9,0,11964587,14376112,-6557767796799901894,1361426809.795978,14720,-5636,2884,nan,0.000000
2,5,10,0,11964587,14376143,-6557767796799899273,1361426809.796171,14512,-5760,3224,nan,0.000000
2,5,10,0,11964587,14376143,-6557767796799896652,1361426809.796171,13880,-5816,3216,nan,0.000000
2,5,10,0,11964587,14376143,-6557767796799894031,1361426809.796171,14100,-5840,3628,nan,0.000000
2,5,10,0,11964587,14376143,-6557767796799891410,1361426809.796171,14272,-5972,3484,nan,0.000000
2,5,10,0,11964587,14376143,-6557767796799888789,1361426809.796171,14652,-5652,3472,nan,0.000000
2,5,11,0,11964587,14376175,-6557767796799886168,1361426809.796397,14280,-5604,3104,nan,0.000000
2,5,11,0,11964587,14376175,-6557767796799883547,1361426809.796397,14884,-5780,3224,nan,0.000000
2,5,11,0,11964587,14376175,-6557767796799880926,1361426809.796397,14860,-5096,3300,nan,0.000000
2,5,11,0,11964587,14376175,-6557767796799878305,1361426809.796397,15068,-3720,2884,nan,0.000000
2,5,11,0,11964587,14376175,-6557767796799875684,1361426809.796397,14980,-4300,2476,nan,0.000000
2,5,12,0,11964587,14376207,-6557767796799873063,1361426809.796607,15400,-3500,2616,nan,0.000000
2,5,12,0,11964587,14376207,-6557767796799870442,1361426809.796607,15820,-3268,2448,nan,0.000000
2,5,12,0,11964587,14376207,-6557767796799867821,1361426809.796607,15840,-2924,2076,nan,0.000000
2,5,12,0,11964587,14376207,-6557767796799865200,1361426809.796607,16092,-2908,1808,nan,0.000000
2,5,12,0,11964587,14376207,-6557767796799862579,1361426809.796607,16680,-2672,1520,nan,0.000000
2,5,13,0,11964587,14376239,-6557767796799859958,1361426809.796856,16424,-1900,1288,nan,0.000000
2,5,13,0,11964587,14376239,-6557767796799857337,1361426809.796856,15720,-1288,1452,nan,0.000000
2,5,13,0,11964587,14376239,-6557767796799854716,1361426809.796856,15800,-1908,916,nan,0.000000
2,5,13,0,11964587,14376239,-6557767796799852095,1361426809.796856,15548,-736,1068,nan,0.000000
2,5,13,0,11964587,14376239,-6557767796799849474,1361426809.796856,16616,472,900,nan,0.000000
2,5,14,0,11964587,14376270,-6557767796799846853,1361426809.797094,16340,604,876,nan,0.000000
2,5,14,0,11964587,14376270,-6557767796799844232,1361426809.797094,15928,696,804,nan,0.000000
2,5,14,0,11964587,14376270,-6557767796799841611,1361426809.797094,16040,1256,1156,nan,0.000000
2,5,14,0,11964587,14376270,-6557767796799838990,1361426809.797094,15960,1520,1060,nan,0.000000
2,5,14,0,11964587,14376270,-6557767796799836369,1361426809.797094,16340,112,792,nan,0.000000
2,5,15,0,11964587,14376302,-6557767796799833748,1361426809.797328,15836,-372,184,nan,0.000000
2,5,15,0,11964587,14376302,-6557767796799831127,1361426809.797328,16012,-612,488,nan,0.000000
2,5,15,0,11964587,14376302,-6557767796799828506,1361426809.797328,16504,-368,900,nan,0.000000
2,5,15,0,11964587,14376302,-6557767796799825885,1361426809.797328,15972,-184,1164,nan,0.000000
2,5,15,0,11964587,14376302,-6557767796799823264,1361426809.797328,15992,444,1164,nan,0.000000
1,5,0,0,12045914,14457443,-1728928169139980288,1361426809.797564,15880,1600,2364,nan,0.000000
1,5,0,0,12045914,14457443,-1728928169139977667,1361426809.797564,16060,1608,2060,nan,0.000000
2,5,1,0,12045914,14457475,-1728928169139975046,1361426809.797674,16060,-432,1232,nan,0.000000
2,5,1,0,12045914,14457475,-1728928169139972425,1361426809.797674,17480,724,1664,nan,0.000000
2,5,1,0,12045914,14457475,-1728928169139969804,1361426809.797674,18352,-476,1008,nan,0.000000
2,5,1,0,12045914,14457475,-1728928169139967183,1361426809.797674,15660,-3064,-952,nan,0.000000
2,5,1,0,12045914,14457475,-1728928169139964562,1361426809.797674,15332,-168,668,nan,0.000000
2,5,2,0,12045914,14457507,-1728928169139961941,1361426809.797916,16584,-1468,1000,nan,0.000000
2,5,2,0,12045914,14457507,-1728928169139959320,1361426809.797916,15788,-2128,588,nan,0.000000
2,5,2,0,12045914,14457507,-1728928169139956699,1361426809.797916,14948,-2216,720,nan,0.000000
2,5,2,0,12045914,14457507,-1728928169139954078,1361426809.797916,15192,-1588,900,nan,0.000000
2,5,2,0,12045914,14457507,-1728928169139951457,1361426809.797916,14880,-1664,648,nan,0.000000
2,5,3,0,12045914,14457538,-1728928169139948836,1361426809.798192,16172,-1260,1508,nan,0.000000
2,5,3,0,12045914,14457538,-1728928169139946215,1361426809.798192,15852,-1424,1432,nan,0.000000
2,5,3,0,12045914,14457538,-1728928169139943594,1361426809.798192,15972,-1052,2412,nan,0.000000
2,5,3,0,12045914,14457538,-1728928169139940973,1361426809.798192,18280,-1500,736,nan,0.000000
2,5,3,0,12045914,14457538,-1728928169139938352,1361426809.798192,17524,-3012,132,nan,0.000000
2,5,4,0,12045914,14457570,-1728928169139935731,1361426809.798428,14244,-2292,-1308,nan,0.000000
2,5,4,0,12045914,14457570,-1728928169139933110,1361426809.798428,15824,-3156,-1732,nan,0.000000
2,5,4,0,12045914,14457570,-1728928169139930489,1361426809.798428,16764,-1928,-672,nan,0.000000
2,5,4,0,12045914,14457570,-1728928169139927868,1361426809.798428,14696,-836,-856,nan,0.000000
2,5,4,0,12045914,14457570,-1728928169139925247,1361426809.798428,16460,-32,-1188,nan,0.000000
2,5,5,0,12045914,14457602,-1728928169139922626,1361426809.798661,16392,572,136,nan,0.000000
2,5,5,0,12045914,14457602,-1728928169139920005,1361426809.798661,15984,100,-212,nan,0.000000
2,5,5,0,12045914,14457602,-1728928169139917384,1361426809.798661,16212,980,-812,nan,0.000000
2,5,5,0,12045914,14457602,-1728928169139914763,1361426809.798661,16032,728,-216,nan,0.000000
2,5,5,0,12045914,14457602,-1728928169139912142,1361426809.798661,14044,-440,-648,nan,0.000000
2,5,6,0,12045914,14457633,-1728928169139909521,1361426811.989207,19232,-2356,-1804,nan,0.000000
2,5,6,0,12045914,14457633,-1728928169139906900,1361426811.989207,17136,-2200,-228,nan,0.000000
2,5,6,0,12045914,14457633,-1728928169139904279,1361426811.989207,16492,-1860,-148,nan,0.000000
2,5,6,0,12045914,14457633,-1728928169139901658,1361426811.989207,15248,-2592,612,nan,0.000000
2,5,6,0,12045914,14457633,-1728928169139899037,1361426811.989207,15316,-2088,1088,nan,0.000000
1,5,7,0,12127240,14538774,2089504166220330232,1361426811.990864,14952,-3000,2172,nan,0.000000
1,5,7,0,12127240,14538774,2089504166220332853,1361426811.990864,14596,-2556,2908,nan,0.000000
2,5,8,0,12127240,14538806,2089504166220335474,1361426811.991440,15444,-2644,3616,nan,0.000000
2,5,8,0,12127240,14538806,2089504166220338095,1361426811.991440,16216,-1876,3888,nan,0.000000
2,5,8,0,12127240,14538806,2089504166220340716,1361426811.991440,17684,-3964,2628,nan,0.000000
2,5,8,0,12127240,14538806,2089504166220343337,1361426811.991440,15588,-1848,1660,nan,0.000000
2,5,8,0,12127240,14538806,2089504166220345958,1361426811.991440,15212,-4352,-1412,nan,0.000000
2,5,9,0,12127240,14538837,2089504166220348579,1361426811.992832,15116,-2124,-1284,nan,0.000000
2,5,9,0,12127240,14538837,2089504166220351200,1361426811.992832,16932,-1612,-376,nan,0.000000
2,5,9,0,12127240,14538837,2089504166220353821,1361426811.992832,15200,-968,-416,nan,0.000000
2,5,9,0,12127240,14538837,2089504166220356442,1361426811.992832,16000,-920,288,nan,0.000000
2,5,9,0,12127240,14538837,2089504166220359063,1361426811.992832,15860,-232,1076,nan,0.000000
2,5,10,0,12127240,14538870,2089504166220361684,1361426811.993748,15780,644,1088,nan,0.000000
2,5,10,0,12127240,14538870,2089504166220364305,1361426811.993748,15776,200,1348,nan,0.000000
2,5,10,0,12127240,14538870,2089504166220366926,1361426811.993748,16380,-296,1824,nan,0.000000
2,5,10,0,12127240,14538870,2089504166220369547,1361426811.993748,17628,440,2348,nan,0.000000
2,5,10,0,12127240,14538870,2089504166220372168,1361426811.993748,19340,-368,2140,nan,0.000000
2,5,11,0,12127240,14538901,2089504166220374789,1361426811.994816,14856,-4956,-2124,nan,0.000000
2,5,11,0,12127240,14538901,2089504166220377410,1361426811.994816,15872,-1836,656,nan,0.000000
2,5,11,0,12127240,14538901,2089504166220380031,1361426811.994816,16260,-2392,188,nan,0.000000
2,5,11,0,12127240,14538901,2089504166220382652,1361426811.994816,14264,-3376,384,nan,0.000000
2,5,11,0,12127240,14538901,2089504166220385273,1361426811.994816,15164,-1116,1536,nan,0.000000
2,5,12,0,12127240,14538933,2089504166220387894,1361426811.995523,14952,-2172,1256,nan,0.000000
2,5,12,0,12127240,14538933,2089504166220390515,1361426811.995523,14748,-1220,1808,nan,0.000000
2,5,12,0,12127240,14538933,2089504166220393136,1361426811.995523,15700,-1224,1808,nan,0.000000
2,5,12,0,12127240,14538933,2089504166220395757,1361426811.995523,15712,-1472,2044,nan,0.000000
2,5,12,0,12127240,14538933,2089504166220398378,1361426811.995523,17812,552,3896,nan,0.000000
2,5,13,0,12127240,14538965,2089504166220400999,1361426814.471175,20816,-4848,-412,nan,0.000000
2,5,13,0,12127240,14538965,2089504166220403620,1361426814.471175,16096,-656,-908,nan,0.000000
2,5,13,0,12127240,14538965,2089504166220406241,1361426814.471175,14352,-4260,-3536,nan,0.000000
2,5,13,0,12127240,14538965,2089504166220408862,1361426814.471175,16036,-3052,-880,nan,0.000000
2,5,13,0,12127240,14538965,2089504166220411483,1361426814.471175,14780,-1324,-440,nan,0.000000
1,5,14,0,12208567,14620105,8429736838221948158,1361426814.472807,16000,-1024,668,nan,0.000000
1,5,14,0,12208567,14620105,8429736838221950779,1361426814.472807,15988,-580,924,nan,0.000000
2,5,15,0,12208567,14620137,8429736838221953400,1361426814.473386,15712,24,1040,nan,0.000000
2,5,15,0,12208567,14620137,8429736838221956021,1361426814.473386,16004,156,1140,nan,0.000000
2,5,15,0,12208567,14620137,8429736838221958642,1361426814.473386,16480,916,1324,nan,0.000000
2,5,15,0,12208567,14620137,8429736838221961263,1361426814.473386,17276,1564,1632,nan,0.000000
2,5,15,0,12208567,14620137,8429736838221963884,1361426814.473386,17260,-1756,776,nan,0.000000
2,5,0,0,12208567,14620168,8429736838221966505,1361426814.474808,13760,-3472,808,nan,0.000000
2,5,0,0,12208567,14620168,8429736838221969126,1361426814.474808,16780,-2972,1380,nan,0.000000
2,5,0,0,12208567,14620168,8429736838221971747,1361426814.474808,16220,-2184,1072,nan,0.000000
2,5,0,0,12208567,14620168,8429736838221974368,1361426814.474808,16656,-4232,824,nan,0.000000
2,5,0,0,12208567,14620168,8429736838221976989,1361426814.474808,14612,-3216,864,nan,0.000000
2,5,1,0,12208567,14620201,8429736838221979610,1361426814.475551,14676,-3368,664,nan,0.000000
2,5,1,0,12208567,14620201,8429736838221982231,1361426814.475551,15960,-3232,1036,nan,0.000000
2,5,1,0,12208567,14620201,8429736838221984852,1361426814.475551,15876,-3176,588,nan,0.000000
2,5,1,0,12208567,14620201,8429736838221987473,1361426814.475551,15748,-2712,760,nan,0.000000
2,5,1,0,12208567,14620201,8429736838221990094,1361426814.475551,15628,-2092,1032,nan,0.000000
2,5,2,0,12208567,14620232,8429736838221992715,1361426814.476778,16744,-956,592,nan,0.000000
2,5,2,0,12208567,14620232,8429736838221995336,1361426814.476778,15696,-1840,868,nan,0.000000
2,5,2,0,12208567,14620232,8429736838221997957,1361426814.476778,15388,-2248,324,nan,0.000000
2,5,2,0,12208567,14620232,8429736838222000578,1361426814.476778,15692,-1368,-584,nan,0.000000
2,5,2,0,12208567,14620232,8429736838222003199,1361426814.476778,17632,-684,-464,nan,0.000000
2,5,3,0,12208567,14620265,8429736838222005820,1361426814.477762,15692,-500,-1088,nan,0.000000
2,5,3,0,12208567,14620265,8429736838222008441,1361426814.477762,15612,-304,-1212,nan,0.000000
2,5,3,0,12208567,14620265,8429736838222011062,1361426814.477762,16264,184,-1160,nan,0.000000
2,5,3,0,12208567,14620265,8429736838222013683,1361426814.477762,16168,-108,-868,nan,0.000000
2,5,3,0,12208567,14620265,8429736838222016304,1361426814.477762,15932,220,-1116,nan,0.000000
1,5,5,0,12289893,14782764,2377108962265810172,1361426819.436997,16628,-1876,-932,nan,0.000000
1,5,5,0,12289893,14782764,2377108962265812793,1361426819.436997,16260,-1880,-1400,nan,0.000000
2,5,6,0,12289893,14782796,2377108962265815414,1361426819.437880,15020,-1536,-672,nan,0.000000
2,5,6,0,12289893,14782796,2377108962265818035,1361426819.437880,15212,-2276,-880,nan,0.000000
2,5,6,0,12289893,14782796,2377108962265820656,1361426819.437880,15296,-1744,-116,nan,0.000000
2,5,6,0,12289893,14782796,2377108962265823277,1361426819.437880,15568,-968,72,nan,0.000000
2,5,6,0,12289893,14782796,2377108962265825898,1361426819.437880,15848,-876,420,nan,0.000000
2,5,7,0,12289893,14782828,2377108962265828519,1361426819.438907,16232,-1044,984,nan,0.000000
2,5,7,0,12289893,14782828,2377108962265831140,1361426819.438907,17256,752,1652,nan,0.000000
2,5,7,0,12289893,14782828,2377108962265833761,1361426819.438907,19320,-3288,-1424,nan,0.000000
2,5,7,0,12289893,14782828,2377108962265836382,1361426819.438907,15256,-1424,-1780,nan,0.000000
2,5,7,0,12289893,14782828,2377108962265839003,1361426819.438907,15620,-4256,-3228,nan,0.000000
2,5,8,0,12289893,14782860,2377108962265841624,1361426819.439701,15740,-1788,-508,nan,0.000000
2,5,8,0,12289893,14782860,2377108962265844245,1361426819.439701,14624,-356,-484,nan,0.000000
2,5,8,0,12289893,14782860,2377108962265846866,1361426819.439701,15624,-604,-896,nan,0.000000
2,5,8,0,12289893,14782860,2377108962265849487,1361426819.439701,15984,-28,176,nan,0.000000
2,5,8,0,12289893,14782860,2377108962265852108,1361426819.439701,15432,748,300,nan,0.000000
2,5,9,0,12289893,14782892,2377108962265854729,1361426819.440665,15756,504,276,nan,0.000000
2,5,9,0,12289893,14782892,2377108962265857350,1361426819.440665,16096,1508,1624,nan,0.000000
2,5,9,0,12289893,14782892,2377108962265859971,1361426819.440665,18084,780,1504,nan,0.000000
2,5,9,0,12289893,14782892,2377108962265862592,1361426819.440665,17584,-280,-12,nan,0.000000
2,5,9,0,12289893,14782892,2377108962265865213,1361426819.440665,16236,-3424,-1060,nan,0.000000
2,5,10,0,12289893,14782924,2377108962265867834,1361426819.441710,14024,-2404,-1068,nan,0.000000
2,5,10,0,12289893,14782924,2377108962265870455,1361426819.441710,17716,-1908,396,nan,0.000000
2,5,10,0,12289893,14782924,2377108962265873076,1361426819.441710,16516,-1992,-48,nan,0.000000
2,5,10,0,12289893,14782924,2377108962265875697,1361426819.441710,14448,-2228,40,nan,0.000000
2,5,10,0,12289893,14782924,2377108962265878318,1361426819.441710,15228,-1928,692,nan,0.000000
2,5,11,0,12289893,14782956,2377108962265880939,1361426819.442690,15528,-2012,844,nan,0.000000
2,5,11,0,12289893,14782956,2377108962265883560,1361426819.442690,15896,-1692,868,nan,0.000000
2,5,11,0,12289893,14782956,2377108962265886181,1361426819.442690,15828,-1368,1568,nan,0.000000
2,5,11,0,12289893,14782956,2377108962265888802,1361426819.442690,15524,-1208,1808,nan,0.000000
2,5,11,0,12289893,14782956,2377108962265891423,1361426819.442690,16784,-644,2684,nan,0.000000
1,5,12,0,12371219,14782988,7206714849739295747,1361426819.443427,16484,-2312,384,nan,0.000000
1,5,12,15,12371219,14782988,7206714849739298368,1361426819.443427,14640,-2328,-772,nan,0.000000
2,5,13,15,12371219,14783020,7206714849739300989,1361426819.444662,15728,-3412,-1472,nan,0.000000
2,5,13,15,12371219,14783020,7206714849739303610,1361426819.444662,17108,-2144,-476,nan,0.000000
2,5,13,15,12371219,14783020,7206714849739306231,1361426819.444662,15316,-384,-576,nan,0.000000
2,5,13,15,12371219,14783020,7206714849739308852,1361426819.444662,16040,-836,-772,nan,0.000000
2,5,13,15,12371219,14783020,7206714849739311473,1361426819.444662,15812,-156,-900,nan,0.000000
2,5,14,15,12371219,14783052,7206714849739314094,1361426819.445462,16064,256,-76,nan,0.000000
2,5,14,15,12371219,14783052,7206714849739316715,1361426819.445462,16792,-964,-1328,nan,0.000000
2,5,14,15,12371219,14783052,7206714849739319336,1361426819.445462,16444,572,-800,nan,0.000000
2,5,14,15,12371219,14783052,7206714849739321957,1361426819.445462,16044,152,-1000,nan,0.000000
2,5,14,15,12371219,14783052,7206714849739324578,1361426819.445462,15204,-2172,-916,nan,0.000000
2,5,15,15,12371219,14783084,7206714849739327199,1361426819.446651,16100,-2136,-572,nan,0.000000
2,5,15,15,12371219,14783084,7206714849739329820,1361426819.446651,16692,-2440,244,nan,0.000000
2,5,15,15,12371219,14783084,7206714849739332441,1361426819.446651,16512,-3272,504,nan,0.000000
2,5,15,15,12371219,14783084,7206714849739335062,1361426819.446651,15364,-3176,964,nan,0.000000
2,5,15,15,12371219,14783084,7206714849739337683,1361426819.446651,15472,-3556,1088,nan,0.000000
2,5,0,15,12371219,14783116,7206714849739340304,1361426819.447463,15100,-3868,928,nan,0.000000
2,5,0,15,12371219,14783116,7206714849739342925,1361426819.447463,15288,-3008,1688,nan,0.000000
2,5,0,15,12371219,14783116,7206714849739345546,1361426819.447463,15800,-2448,2292,nan,0.000000
2,5,0,15,12371219,14783116,7206714849739348167,1361426819.447463,15840,-1840,2732,nan,0.000000
2,5,0,15,12371219,14783116,7206714849739350788,1361426819.447463,16680,-3568,1900,nan,0.000000
2,5,1,15,12371219,14783148,7206714849739353409,1361426819.448753,14988,-1804,2776,nan,0.000000
2,5,1,15,12371219,14783148,7206714849739356030,1361426819.448753,16244,-3124,1064,nan,0.000000
2,5,1,15,12371219,14783148,7206714849739358651,1361426819.448753,15264,-888,500,nan,0.000000
2,5,1,15,12371219,14783148,7206714849739361272,1361426819.448753,16548,-1216,-100,nan,0.000000
2,5,1,15,12371219,14783148,7206714849739363893,1361426819.448753,15908,-40,588,nan,0.000000
2,5,2,15,12371219,14783180,7206714849739366514,1361426821.916949,15532,72,724,nan,0.000000
2,5,2,15,12371219,14783180,7206714849739369135,1361426821.916949,16340,-500,984,nan,0.000000
2,5,2,15,12371219,14783180,7206714849739371756,1361426821.916949,15932,204,1368,nan,0.000000
2,5,2,15,12371219,14783180,7206714849739374377,1361426821.916949,15960,40,1064,nan,0.000000
2,5,2,15,12371219,14783180,7206714849739376998,1361426821.916949,15928,-108,1380,nan,0.000000
1,5,3,0,12452544,14864094,-2881445047964806142,1361426821.918630,17784,168,1224,nan,0.000000
1,5,3,1,12452544,14864094,-2881445047964803521,1361426821.918630,17440,-640,176,nan,0.000000
2,5,4,1,12452544,14864126,-2881445047964800900,1361426821.920826,15552,-4604,-2224,nan,0.000000
2,5,4,1,12452544,14864126,-2881445047964798279,1361426821.920826,15420,-588,-304,nan,0.000000
2,5,4,1,12452544,14864126,-2881445047964795658,1361426821.920826,17288,-1608,-180,nan,0.000000
2,5,4,1,12452544,14864126,-2881445047964793037,1361426821.920826,14872,-2120,16,nan,0.000000
2,5,4,1,12452544,14864126,-2881445047964790416,1361426821.920826,14932,-1628,412,nan,0.000000
2,5,5,1,12452544,14864157,-2881445047964787795,1361426821.921426,15532,-1628,604,nan,0.000000
2,5,5,1,12452544,14864157,-2881445047964785174,1361426821.921426,15636,-1208,548,nan,0.000000
2,5,5,1,12452544,14864157,-2881445047964782553,1361426821.921426,15432,-1028,1224,nan,0.000000
2,5,5,1,12452544,14864157,-2881445047964779932,1361426821.921426,15556,-1224,1008,nan,0.000000
2,5,5,1,12452544,14864157,-2881445047964777311,1361426821.921426,16588,-1240,2552,nan,0.000000
2,5,6,1,12452544,14864189,-2881445047964774690,1361426821.921987,18828,-1864,616,nan,0.000000
2,5,6,1,12452544,14864189,-2881445047964772069,1361426821.921987,17992,-1852,-12,nan,0.000000
2,5,6,1,12452544,14864189,-2881445047964769448,1361426821.921987,14832,-3476,-3140,nan,0.000000
2,5,6,1,12452544,14864189,-2881445047964766827,1361426821.921987,15932,-4300,-1612,nan,0.000000
2,5,6,1,12452544,14864189,-2881445047964764206,1361426821.921987,14304,-1716,-200,nan,0.000000
2,5,7,1,12452544,14864221,-2881445047964761585,1361426821.922776,15116,-1112,-396,nan,0.000000
2,5,7,1,12452544,14864221,-2881445047964758964,1361426821.922776,16248,-1548,-404,nan,0.000000
2,5,7,1,12452544,14864221,-2881445047964756343,1361426821.922776,16052,-348,668,nan,0.000000
2,5,7,1,12452544,14864221,-2881445047964753722,1361426821.922776,15856,-52,864,nan,0.000000
2,5,7,1,12452544,14864221,-2881445047964751101,1361426821.922776,15756,-268,488,nan,0.000000
2,5,8,1,12452544,14864254,-2881445047964748480,1361426821.923348,15772,-176,1384,nan,0.000000
2,5,8,1,12452544,14864254,-2881445047964745859,1361426821.923348,17996,-1080,1508,nan,0.000000
2,5,8,1,12452544,14864254,-2881445047964743238,1361426821.923348,17972,-1172,304,nan,0.000000
2,5,8,1,12452544,14864254,-2881445047964740617,1361426821.923348,15624,-2804,-540,nan,0.000000
2,5,8,1,12452544,14864254,-2881445047964737996,1361426821.923348,14452,-2672,-808,nan,0.000000
2,5,9,1,12452544,14864285,-2881445047964735375,1361426824.398960,16016,-2376,512,nan,0.000000
2,5,9,1,12452544,14864285,-2881445047964732754,1361426824.398960,17396,-1480,16,nan,0.000000
2,5,9,1,12452544,14864285,-2881445047964730133,1361426824.398960,14624,-3036,-64,nan,0.000000
2,5,9,1,12452544,14864285,-2881445047964727512,1361426824.398960,15288,-2492,688,nan,0.000000
2,5,9,1,12452544,14864285,-2881445047964724891,1361426824.398960,15488,-2036,472,nan,0.000000
1,5,10,0,12533870,14945423,1152984155097858050,1361426824.400614,15768,-1768,632,nan,0.000000
1,5,10,0,12533870,14945423,1152984155097860671,1361426824.400614,15652,-2060,692,nan,0.000000
2,5,11,0,12533870,14945455,1152984155097863292,1361426824.401067,16024,-1656,1076,nan,0.000000
2,5,11,0,12533870,14945455,1152984155097865913,1361426824.401067,18108,-2432,284,nan,0.000000
2,5,11,0,12533870,14945455,1152984155097868534,1361426824.401067,15632,-1884,-292,nan,0.000000
2,5,11,0,12533870,14945455,1152984155097871155,1361426824.401067,14832,-2676,-1052,nan,0.000000
2,5,11,0,12533870,14945455,1152984155097873776,1361426824.401067,15328,-2988,-2556,nan,0.000000
2,5,12,0,12533870,14945486,1152984155097876397,1361426824.402621,17324,-2952,-1308,nan,0.000000
2,5,12,0,12533870,14945486,1152984155097879018,1361426824.402621,15316,-188,-1308,nan,0.000000
2,5,12,0,12533870,14945486,1152984155097881639,1361426824.402621,15868,-1672,-1896,nan,0.000000
2,5,12,0,12533870,14945486,1152984155097884260,1361426824.402621,16160,-1384,-2184,nan,0.000000
2,5,12,0,12533870,14945486,1152984155097886881,1361426824.402621,16180,20,-2804,nan,0.000000
2,5,13,0,12533870,14945519,1152984155097889502,1361426824.403392,16460,-164,-2912,nan,0.000000
2,5,13,0,12533870,14945519,1152984155097892123,1361426824.403392,15776,-364,-1856,nan,0.000000
2,5,13,0,12533870,14945519,1152984155097894744,1361426824.403392,15068,-3328,-2728,nan,0.000000
2,5,13,0,12533870,14945519,1152984155097897365,1361426824.403392,16512,-2760,-1280,nan,0.000000
2,5,13,0,12533870,14945519,1152984155097899986,1361426824.403392,16308,-960,-160,nan,0.000000
2,5,14,0,12533870,14945550,1152984155097902607,1361426824.404547,16884,-2600,300,nan,0.000000
2,5,14,0,12533870,14945550,1152984155097905228,1361426824.404547,15556,-3252,-36,nan,0.000000
2,5,14,0,12533870,14945550,1152984155097907849,1361426824.404547,15276,-2484,780,nan,0.000000
2,5,14,0,12533870,14945550,1152984155097910470,1361426824.404547,15680,-3612,704,nan,0.000000
2,5,14,0,12533870,14945550,1152984155097913091,1361426824.404547,15428,-2588,1268,nan,0.000000
2,5,15,0,12533870,14945583,1152984155097915712,1361426824.405513,15336,-2620,1852,nan,0.000000
2,5,15,0,12533870,14945583,1152984155097918333,1361426824.405513,15508,-2488,2536,nan,0.000000
2,5,15,0,12533870,14945583,1152984155097920954,1361426824.405513,15496,-2236,3036,nan,0.000000
2,5,15,0,12533870,14945583,1152984155097923575,1361426824.405513,17060,-2396,2728,nan,0.000000
2,5,15,0,12533870,14945583,1152984155097926196,1361426824.405513,15620,-1816,1704,nan,0.000000
2,5,0,0,12533870,14945614,1152984155097928817,1361426826.880901,15168,-2724,1236,nan,0.000000
2,5,0,0,12533870,14945614,1152984155097931438,1361426826.880901,16584,-1116,-524,nan,0.000000
2,5,0,0,12533870,14945614,1152984155097934059,1361426826.880901,16760,-636,-44,nan,0.000000
2,5,0,0,12533870,14945614,1152984155097936680,1361426826.880901,15036,-84,-256,nan,0.000000
2,5,0,0,12533870,14945614,1152984155097939301,1361426826.880901,16048,-152,64,nan,0.000000
1,5,1,0,12615195,15026753,-793296558043900924,1361426826.882526,15980,-212,1132,nan,0.000000
1,5,1,0,12615195,15026753,-793296558043898303,1361426826.882526,15980,404,928,nan,0.000000
2,5,2,0,12615195,15026785,-793296558043895682,1361426826.883133,15976,328,1404,nan,0.000000
2,5,2,0,12615195,15026785,-793296558043893061,1361426826.883133,16124,144,1508,nan,0.000000
2,5,2,0,12615195,15026785,-793296558043890440,1361426826.883133,17056,660,2004,nan,0.000000
2,5,2,0,12615195,15026785,-793296558043887819,1361426826.883133,18216,-544,1596,nan,0.000000
2,5,2,0,12615195,15026785,-793296558043885198,1361426826.883133,16180,-2252,-804,nan,0.000000
2,5,3,0,12615195,15026816,-793296558043882577,1361426826.884487,14840,-3220,-344,nan,0.000000
2,5,3,0,12615195,15026816,-793296558043879956,1361426826.884487,16460,-2104,968,nan,0.000000
2,5,3,0,12615195,15026816,-793296558043877335,1361426826.884487,17016,-1600,980,nan,0.000000
2,5,3,0,12615195,15026816,-793296558043874714,1361426826.884487,14364,-2544,1004,nan,0.000000
2,5,3,0,12615195,15026816,-793296558043872093,1361426826.884487,15488,-2464,1736,nan,0.000000
2,5,4,0,12615195,15026849,-793296558043869472,1361426826.885333,14848,-1928,1948,nan,0.000000
2,5,4,0,12615195,15026849,-793296558043866851,1361426826.885333,15120,-1476,2156,nan,0.000000
2,5,4,0,12615195,15026849,-793296558043864230,1361426826.885333,15940,-1048,2456,nan,0.000000
2,5,4,0,12615195,15026849,-793296558043861609,1361426826.885333,15572,-588,2912,nan,0.000000
2,5,4,0,12615195,15026849,-793296558043858988,1361426826.885333,15896,-24,3796,nan,0.000000
2,5,5,0,12615195,15026880,-793296558043856367,1361426826.886497,21024,-4828,-308,nan,0.000000
2,5,5,0,12615195,15026880,-793296558043853746,1361426826.886497,16372,-348,872,nan,0.000000
2,5,5,0,12615195,15026880,-793296558043851125,1361426826.886497,13372,-4416,-3312,nan,0.000000
2,5,5,0,12615195,15026880,-793296558043848504,1361426826.886497,15376,-4496,-1680,nan,0.000000
2,5,5,0,12615195,15026880,-793296558043845883,1361426826.886497,16472,-2488,-984,nan,0.000000
2,5,6,0,12615195,15026913,-793296558043843262,1361426826.887682,15080,-1176,-716,nan,0.000000
2,5,6,0,12615195,15026913,-793296558043840641,1361426826.887682,15880,-836,-420,nan,0.000000
2,5,6,0,12615195,15026913,-793296558043838020,1361426826.887682,16268,-700,592,nan,0.000000
2,5,6,0,12615195,15026913,-793296558043835399,1361426826.887682,15812,-608,828,nan,0.000000
2,5,6,0,12615195,15026913,-793296558043832778,1361426826.887682,16024,-96,960,nan,0.000000
2,5,7,0,12615195,15026944,-793296558043830157,1361426829.362826,16020,32,1192,nan,0.000000
2,5,7,0,12615195,15026944,-793296558043827536,1361426829.362826,15972,-588,1600,nan,0.000000
2,5,7,0,12615195,15026944,-793296558043824915,1361426829.362826,18200,-2100,1536,nan,0.000000
2,5,7,0,12615195,15026944,-793296558043822294,1361426829.362826,17532,-1380,348,nan,0.000000
2,5,7,0,12615195,15026944,-793296558043819673,1361426829.362826,15728,-3192,-208,nan,0.000000
1,5,8,0,12696519,15108081,4613573868689205252,1361426829.364455,16764,-1948,1452,nan,0.000000
1,5,8,0,12696519,15108081,4613573868689207873,1361426829.364455,15716,-1828,1464,nan,0.000000
2,5,9,0,12696519,15108113,4613573868689210494,1361426829.365048,14680,-2140,1048,nan,0.000000
2,5,9,0,12696519,15108113,4613573868689213115,1361426829.365048,15788,-1848,1468,nan,0.000000
2,5,9,0,12696519,15108113,4613573868689215736,1361426829.365048,16048,-1540,1428,nan,0.000000
2,5,9,0,12696519,15108113,4613573868689218357,1361426829.365048,16068,-1968,1280,nan,0.000000
2,5,9,0,12696519,15108113,4613573868689220978,1361426829.365048,15568,-1708,1428,nan,0.000000
2,5,10,0,12696519,15108144,4613573868689223599,1361426829.366454,15464,-2304,1040,nan,0.000000
2,5,10,0,12696519,15108144,4613573868689226220,1361426829.366454,15176,-1968,1312,nan,0.000000
2,5,10,0,12696519,15108144,4613573868689228841,1361426829.366454,15564,-2500,1116,nan,0.000000
2,5,10,0,12696519,15108144,4613573868689231462,1361426829.366454,16920,-2812,636,nan,0.000000
2,5,10,0,12696519,15108144,4613573868689234083,1361426829.366454,18172,-2356,-1356,nan,0.000000
2,5,11,0,12696519,15108177,4613573868689236704,1361426829.367626,13516,-1076,-968,nan,0.000000
2,5,11,0,12696519,15108177,4613573868689239325,1361426829.367626,16064,-1532,-3208,nan,0.000000
2,5,11,0,12696519,15108177,4613573868689241946,1361426829.367626,16028,-1732,-3280,nan,0.000000
2,5,11,0,12696519,15108177,4613573868689244567,1361426829.367626,15888,-836,-2384,nan,0.000000
2,5,11,0,12696519,15108177,4613573868689247188,1361426829.367626,15708,-540,-2976,nan,0.000000
2,5,12,0,12696519,15108208,4613573868689249809,1361426829.368465,15940,-636,-3260,nan,0.000000
2,5,12,0,12696519,15108208,4613573868689252430,1361426829.368465,15432,112,-3216,nan,0.000000
2,5,12,0,12696519,15108208,4613573868689255051,1361426829.368465,16588,-756,-4232,nan,0.000000
2,5,12,0,12696519,15108208,4613573868689257672,1361426829.368465,15712,-1164,-3972,nan,0.000000
2,5,12,0,12696519,15108208,4613573868689260293,1361426829.368465,15792,-1312,-4224,nan,0.000000
2,5,13,0,12696519,15108241,4613573868689262914,1361426829.369282,15828,-544,-4200,nan,0.000000
2,5,13,0,12696519,15108241,4613573868689265535,1361426829.369282,15932,116,-3504,nan,0.000000
2,5,13,0,12696519,15108241,4613573868689268156,1361426829.369282,15648,-324,-3768,nan,0.000000
2,5,13,0,12696519,15108241,4613573868689270777,1361426829.369282,16376,-1124,-3304,nan,0.000000
2,5,13,0,12696519,15108241,4613573868689273398,1361426829.369282,16048,-840,-2444,nan,0.000000
2,5,14,0,12696519,15108272,4613573868689276019,1361426831.844655,15340,-1116,-2360,nan,0.000000
2,5,14,0,12696519,15108272,4613573868689278640,1361426831.844655,16112,-1372,-1388,nan,0.000000
2,5,14,0,12696519,15108272,4613573868689281261,1361426831.844655,15824,-1620,-760,nan,0.000000
2,5,14,0,12696519,15108272,4613573868689283882,1361426831.844655,15364,-2288,536,nan,0.000000
2,5,14,0,12696519,15108272,4613573868689286503,1361426831.844655,16872,-2340,632,nan,0.000000
1,5,15,0,12777842,15189407,-7711670014239127306,1361426831.846452,15228,-1616,552,nan,0.000000
1,5,15,0,12777842,15189407,-7711670014239124685,1361426831.846452,15848,-1912,600,nan,0.000000
2,5,0,0,12777842,15189439,-7711670014239122064,1361426831.846852,15828,-1644,412,nan,0.000000
2,5,0,0,12777842,15189439,-7711670014239119443,1361426831.846852,15572,-1724,640,nan,0.000000
2,5,0,0,12777842,15189439,-7711670014239116822,1361426831.846852,15656,-1880,516,nan,0.000000
2,5,0,0,12777842,15189439,-7711670014239114201,1361426831.846852,15888,-1956,728,nan,0.000000
2,5,0,0,12777842,15189439,-7711670014239111580,1361426831.846852,16300,-656,1496,nan,0.000000
2,5,1,0,12777842,15189470,-7711670014239108959,1361426831.848375,18116,-2288,-208,nan,0.000000
2,5,1,0,12777842,15189470,-7711670014239106338,1361426831.848375,17472,-2400,-1084,nan,0.000000
2,5,1,0,12777842,15189470,-7711670014239103717,1361426831.848375,14480,-44,-2044,nan,0.000000
2,5,1,0,12777842,15189470,-7711670014239101096,1361426831.848375,14476,-4140,-3536,nan,0.000000
2,5,1,0,12777842,15189470,-7711670014239098475,1361426831.848375,16688,-2836,-1576,nan,0.000000
2,5,2,0,12777842,15189503,-7711670014239095854,1361426831.849371,15692,-40,-1304,nan,0.000000
2,5,2,0,12777842,15189503,-7711670014239093233,1361426831.849371,15304,-516,-1476,nan,0.000000
2,5,2,0,12777842,15189503,-7711670014239090612,1361426831.849371,16012,-1216,-1448,nan,0.000000
2,5,2,0,12777842,15189503,-7711670014239087991,1361426831.849371,16044,-320,-732,nan,0.000000
2,5,2,0,12777842,15189503,-7711670014239085370,1361426831.849371,16440,-120,-588,nan,0.000000
2,5,3,0,12777842,15189534,-7711670014239082749,1361426831.850481,15728,500,-292,nan,0.000000
2,5,3,0,12777842,15189534,-7711670014239080128,1361426831.850481,15932,156,-156,nan,0.000000
2,5,3,0,12777842,15189534,-7711670014239077507,1361426831.850481,17312,-96,-504,nan,0.000000
2,5,3,0,12777842,15189534,-7711670014239074886,1361426831.850481,17956,-1504,-524,nan,0.000000
2,5,3,0,12777842,15189534,-7711670014239072265,1361426831.850481,16568,-1972,-1424,nan,0.000000
2,5,4,0,12777842,15189566,-7711670014239069644,1361426831.851014,14708,-3308,-1348,nan,0.000000
2,5,4,0,12777842,15189566,-7711670014239067023,1361426831.851014,15320,-3392,-248,nan,0.000000
2,5,4,0,12777842,15189566,-7711670014239064402,1361426831.851014,16868,-2592,560,nan,0.000000
2,5,4,0,12777842,15189566,-7711670014239061781,1361426831.851014,15204,-2624,420,nan,0.000000
2,5,4,0,12777842,15189566,-7711670014239059160,1361426831.851014,14744,-2564,936,nan,0.000000
2,5,5,0,12777842,15189598,-7711670014239056539,1361426834.328724,15048,-2276,1536,nan,0.000000
2,5,5,0,12777842,15189598,-7711670014239053918,1361426834.328724,15252,-1892,1672,nan,0.000000
2,5,5,0,12777842,15189598,-7711670014239051297,1361426834.328724,15784,-1220,2020,nan,0.000000
2,5,5,0,12777842,15189598,-7711670014239048676,1361426834.328724,15196,-1264,1900,nan,0.000000
2,5,5,0,12777842,15189598,-7711670014239046055,1361426834.328724,16296,-484,3568,nan,0.000000
1,5,6,0,12859165,15270753,-8645049843238371322,1361426834.329902,16656,-524,-1172,nan,0.000000
1,5,6,0,12859165,15270753,-8645049843238368701,1361426834.329902,13808,-3544,-4348,nan,0.000000
2,5,7,0,12859165,15270785,-8645049843238366080,1361426834.330539,15720,-4240,-2148,nan,0.000000
2,5,7,0,12859165,15270785,-8645049843238363459,1361426834.330539,15504,-2056,-1176,nan,0.000000
2,5,7,0,12859165,15270785,-8645049843238360838,1361426834.330539,15608,-1460,-1404,nan,0.000000
2,5,7,0,12859165,15270785,-8645049843238358217,1361426834.330539,15584,-772,-1908,nan,0.000000
2,5,7,0,12859165,15270785,-8645049843238355596,1361426834.330539,16404,-1524,-1668,nan,0.000000
2,5,8,0,12859165,15270817,-8645049843238352975,1361426834.331400,16376,-228,-1172,nan,0.000000
2,5,8,0,12859165,15270817,-8645049843238350354,1361426834.331400,15712,544,-664,nan,0.000000
2,5,8,0,12859165,15270817,-8645049843238347733,1361426834.331400,16116,520,-752,nan,0.000000
2,5,8,0,12859165,15270817,-8645049843238345112,1361426834.331400,16652,1040,-856,nan,0.000000
2,5,8,0,12859165,15270817,-8645049843238342491,1361426834.331400,16476,1408,-392,nan,0.000000
2,5,9,0,12859165,15270848,-8645049843238339870,1361426834.332275,16480,-816,-1144,nan,0.000000
2,5,9,0,12859165,15270848,-8645049843238337249,1361426834.332275,14820,-3100,-752,nan,0.000000
2,5,9,0,12859165,15270848,-8645049843238334628,1361426834.332275,16664,-3556,-452,nan,0.000000
2,5,9,0,12859165,15270848,-8645049843238332007,1361426834.332275,15444,-4008,-704,nan,0.000000
2,5,9,0,12859165,15270848,-8645049843238329386,1361426834.332275,15472,-4660,-604,nan,0.000000
2,5,10,0,12859165,15270881,-8645049843238326765,1361426834.333149,15860,-3348,-388,nan,0.000000
2,5,10,0,12859165,15270881,-8645049843238324144,1361426834.333149,15552,-4180,-440,nan,0.000000
2,5,10,0,12859165,15270881,-8645049843238321523,1361426834.333149,15196,-4320,-828,nan,0.000000
2,5,10,0,12859165,15270881,-8645049843238318902,1361426834.333149,15216,-5192,-920,nan,0.000000
2,5,10,0,12859165,15270881,-8645049843238316281,1361426834.333149,14840,-5240,-1008,nan,0.000000
2,5,11,0,12859165,15270912,-8645049843238313660,1361426834.334300,14660,-4936,-1272,nan,0.000000
2,5,11,0,12859165,15270912,-8645049843238311039,1361426834.334300,15504,-5828,-1044,nan,0.000000
2,5,11,0,12859165,15270912,-8645049843238308418,1361426834.334300,15364,-3984,-236,nan,0.000000
2,5,11,0,12859165,15270912,-8645049843238305797,1361426834.334300,15132,-4136,-28,nan,0.000000
2,5,11,0,12859165,15270912,-8645049843238303176,1361426834.334300,15332,-3140,384,nan,0.000000
2,5,12,0,12859165,15270945,-8645049843238300555,1361426836.810330,15856,-3060,-204,nan,0.000000
2,5,12,0,12859165,15270945,-8645049843238297934,1361426836.810330,17688,-3608,-764,nan,0.000000
2,5,12,0,12859165,15270945,-8645049843238295313,1361426836.810330,14680,-2288,-584,nan,0.000000
2,5,12,0,12859165,15270945,-8645049843238292692,1361426836.810330,15936,-2516,-1484,nan,0.000000
2,5,12,0,12859165,15270945,-8645049843238290071,1361426836.810330,16508,-712,-1600,nan,0.000000
1,5,13,0,12940488,15352116,359699667451458815,1361426836.812360,15800,980,-1448,nan,0.000000
1,5,13,0,12940488,15352116,359699667451461436,1361426836.812360,16200,28,-548,nan,0.000000
2,5,14,0,12940488,15352148,359699667451464057,1361426836.812828,16312,780,-468,nan,0.000000
2,5,14,0,12940488,15352148,359699667451466678,1361426836.812828,15960,572,-636,nan,0.000000
2,5,14,0,12940488,15352148,359699667451469299,1361426836.812828,16428,540,-364,nan,0.000000
2,5,14,0,12940488,15352148,359699667451471920,1361426836.812828,15920,784,-84,nan,0.000000
2,5,14,0,12940488,15352148,359699667451474541,1361426836.812828,16284,640,496,nan,0.000000
2,5,15,0,12940488,15352179,359699667451477162,1361426836.814686,19360,-676,340,nan,0.000000
2,5,15,0,12940488,15352179,359699667451479783,1361426836.814686,16084,-544,-564,nan,0.000000
2,5,15,0,12940488,15352179,359699667451482404,1361426836.814686,14956,-1788,-224,nan,0.000000
2,5,15,0,12940488,15352179,359699667451485025,1361426836.814686,14908,-4392,-536,nan,0.000000
2,5,15,0,12940488,15352179,359699667451487646,1361426836.814686,17004,-2520,752,nan,0.000000
2,5,0,0,12940488,15352212,359699667451490267,1361426836.815869,16204,-3160,132,nan,0.000000
2,5,0,0,12940488,15352212,359699667451492888,1361426836.815869,14732,-2656,608,nan,0.000000
2,5,0,0,12940488,15352212,359699667451495509,1361426836.815869,15356,-2492,944,nan,0.000000
2,5,0,0,12940488,15352212,359699667451498130,1361426836.815869,14908,-1976,1132,nan,0.000000
2,5,0,0,12940488,15352212,359699667451500751,1361426836.815869,15452,-1872,1316,nan,0.000000
2,5,1,0,12940488,15352243,359699667451503372,1361426836.816730,15996,-1292,1596,nan,0.000000
2,5,1,0,12940488,15352243,359699667451505993,1361426836.816730,15568,-1748,2168,nan,0.000000
2,5,1,0,12940488,15352243,359699667451508614,1361426836.816730,17144,188,2336,nan,0.000000
2,5,1,0,12940488,15352243,359699667451511235,1361426836.816730,19532,-3828,-1204,nan,0.000000
2,5,1,0,12940488,15352243,359699667451513856,1361426836.816730,16040,-1196,-752,nan,0.000000
2,5,2,0,12940488,15352276,359699667451516477,1361426836.817307,13688,-3252,-3216,nan,0.000000
2,5,2,0,12940488,15352276,359699667451519098,1361426836.817307,16596,-3880,-1348,nan,0.000000
2,5,2,0,12940488,15352276,359699667451521719,1361426836.817307,15508,-1016,-804,nan,0.000000
2,5,2,0,12940488,15352276,359699667451524340,1361426836.817307,15420,-928,-1144,nan,0.000000
2,5,2,0,12940488,15352276,359699667451526961,1361426836.817307,16072,-912,-872,nan,0.000000
2,5,3,0,12940488,15352307,359699667451529582,1361426839.290266,16068,-324,-336,nan,0.000000
2,5,3,0,12940488,15352307,359699667451532203,1361426839.290266,16448,-204,-60,nan,0.000000
2,5,3,0,12940488,15352307,359699667451534824,1361426839.290266,15824,188,544,nan,0.000000
2,5,3,0,12940488,15352307,359699667451537445,1361426839.290266,16000,100,416,nan,0.000000
2,5,3,0,12940488,15352307,359699667451540066,1361426839.290266,16292,80,1152,nan,0.000000
1,5,4,0,13021810,15433388,-4251621252315172610,1361426839.292244,16736,-1704,-244,nan,0.000000
1,5,4,0,13021810,15433388,-4251621252315169989,1361426839.292244,16516,-1496,300,nan,0.000000
2,5,5,0,13021810,15433420,-4251621252315167368,1361426839.292921,14700,-2892,-716,nan,0.000000
2,5,5,0,13021810,15433420,-4251621252315164747,1361426839.292921,16168,-2368,532,nan,0.000000
2,5,5,0,13021810,15433420,-4251621252315162126,1361426839.292921,16668,-408,1328,nan,0.000000
2,5,5,0,13021810,15433420,-4251621252315159505,1361426839.292921,15648,-1864,1036,nan,0.000000
2,5,5,0,13021810,15433420,-4251621252315156884,1361426839.292921,15388,-980,1500,nan,0.000000
2,5,6,0,13021810,15433452,-4251621252315154263,1361426839.294253,15536,-1136,1920,nan,0.000000
2,5,6,0,13021810,15433452,-4251621252315151642,1361426839.294253,16744,-1080,1948,nan,0.000000
2,5,6,0,13021810,15433452,-4251621252315149021,1361426839.294253,15400,-956,2024,nan,0.000000
2,5,6,0,13021810,15433452,-4251621252315146400,1361426839.294253,15576,-1764,2028,nan,0.000000
2,5,6,0,13021810,15433452,-4251621252315143779,1361426839.294253,15964,-1832,2432,nan,0.000000
2,5,7,0,13021810,15433484,-4251621252315141158,1361426839.295062,14832,-2416,2560,nan,0.000000
2,5,7,0,13021810,15433484,-4251621252315138537,1361426839.295062,15340,-3264,2512,nan,0.000000
2,5,7,0,13021810,15433484,-4251621252315135916,1361426839.295062,16392,-3552,1736,nan,0.000000
2,5,7,0,13021810,15433484,-4251621252315133295,1361426839.295062,16460,-1932,520,nan,0.000000
2,5,7,0,13021810,15433484,-4251621252315130674,1361426839.295062,16968,1172,-36,nan,0.000000
2,5,8,0,13021810,15433516,-4251621252315128053,1361426839.296176,16352,-332,592,nan,0.000000
2,5,8,0,13021810,15433516,-4251621252315125432,1361426839.296176,16172,2060,656,nan,0.000000
2,5,8,0,13021810,15433516,-4251621252315122811,1361426839.296176,15420,1472,640,nan,0.000000
2,5,8,0,13021810,15433516,-4251621252315120190,1361426839.296176,16416,892,308,nan,0.000000
2,5,8,0,13021810,15433516,-4251621252315117569,1361426839.296176,16288,472,160,nan,0.000000
2,5,9,0,13021810,15433548,-4251621252315114948,1361426839.296780,15864,756,616,nan,0.000000
2,5,9,0,13021810,15433548,-4251621252315112327,1361426839.296780,16152,1048,-336,nan,0.000000
2,5,9,0,13021810,15433548,-4251621252315109706,1361426839.296780,16412,304,-836,nan,0.000000
2,5,9,0,13021810,15433548,-4251621252315107085,1361426839.296780,16152,304,-640,nan,0.000000
2,5,9,0,13021810,15433548,-4251621252315104464,1361426839.296780,16144,-528,-372,nan,0.000000
2,5,10,0,13021810,15433580,-4251621252315101843,1361426841.772532,17056,-496,-472,nan,0.000000
2,5,10,0,13021810,15433580,-4251621252315099222,1361426841.772532,16456,-856,-812,nan,0.000000
2,5,10,0,13021810,15433580,-4251621252315096601,1361426841.772532,15860,-584,-588,nan,0.000000
2,5,10,0,13021810,15433580,-4251621252315093980,1361426841.772532,15924,-820,-360,nan,0.000000
2,5,10,0,13021810,15433580,-4251621252315091359,1361426841.772532,15512,-1744,188,nan,0.000000
1,5,11,0,13103132,15514713,-3099416642040354562,1361426841.774207,16732,-1716,912,nan,0.000000
1,5,11,0,13103132,15514713,-3099416642040351941,1361426841.774207,15032,-1496,1316,nan,0.000000
2,5,12,0,13103132,15514745,-3099416642040349320,1361426841.774600,15576,-2184,1136,nan,0.000000
2,5,12,0,13103132,15514745,-3099416642040346699,1361426841.774600,15728,-1740,1504,nan,0.000000
2,5,12,0,13103132,15514745,-3099416642040344078,1361426841.774600,15728,-2216,1612,nan,0.000000
2,5,12,0,13103132,15514745,-3099416642040341457,1361426841.774600,15444,-2420,1736,nan,0.000000
2,5,12,0,13103132,15514745,-3099416642040338836,1361426841.774600,15300,-1936,1928,nan,0.000000
2,5,13,0,13103132,15514777,-3099416642040336215,1361426841.776197,15448,-1832,2432,nan,0.000000
2,5,13,0,13103132,15514777,-3099416642040333594,1361426841.776197,16468,-1352,2600,nan,0.000000
2,5,13,0,13103132,15514777,-3099416642040330973,1361426841.776197,19240,-3208,-64,nan,0.000000
2,5,13,0,13103132,15514777,-3099416642040328352,1361426841.776197,15312,-1168,1092,nan,0.000000
2,5,13,0,13103132,15514777,-3099416642040325731,1361426841.776197,14544,-1836,-2140,nan,0.000000
2,5,14,0,13103132,15514809,-3099416642040323110,1361426841.777019,16120,-2012,-1504,nan,0.000000
2,5,14,0,13103132,15514809,-3099416642040320489,1361426841.777019,16660,-1568,-848,nan,0.000000
2,5,14,0,13103132,15514809,-3099416642040317868,1361426841.777019,15016,-524,-268,nan,0.000000
2,5,14,0,13103132,15514809,-3099416642040315247,1361426841.777019,15796,-284,-628,nan,0.000000
2,5,14,0,13103132,15514809,-3099416642040312626,1361426841.777019,16256,56,-340,nan,0.000000
2,5,15,0,13103132,15514841,-3099416642040310005,1361426841.778143,15912,140,-304,nan,0.000000
2,5,15,0,13103132,15514841,-3099416642040307384,1361426841.778143,15532,584,-172,nan,0.000000
2,5,15,0,13103132,15514841,-3099416642040304763,1361426841.778143,16088,636,-484,nan,0.000000
2,5,15,0,13103132,15514841,-3099416642040302142,1361426841.778143,17316,456,-392,nan,0.000000
2,5,15,0,13103132,15514841,-3099416642040299521,1361426841.778143,18824,-956,-688,nan,0.000000
2,5,0,0,13103132,15514873,-3099416642040296900,1361426841.778939,16876,-2592,-2204,nan,0.000000
2,5,0,0,13103132,15514873,-3099416642040294279,1361426841.778939,13440,-2908,-1208,nan,0.000000
2,5,0,0,13103132,15514873,-3099416642040291658,1361426841.778939,15940,-3116,-548,nan,0.000000
2,5,0,0,13103132,15514873,-3099416642040289037,1361426841.778939,16632,-3136,-896,nan,0.000000
2,5,0,0,13103132,15514873,-3099416642040286416,1361426841.778939,15452,-2536,0,nan,0.000000
2,5,1,0,13103132,15514905,-3099416642040283795,1361426844.256486,15028,-2060,128,nan,0.000000
2,5,1,0,13103132,15514905,-3099416642040281174,1361426844.256486,15208,-1788,124,nan,0.000000
2,5,1,0,13103132,15514905,-3099416642040278553,1361426844.256486,15796,-1616,640,nan,0.000000
2,5,1,0,13103132,15514905,-3099416642040275932,1361426844.256486,15584,-1384,720,nan,0.000000
2,5,1,0,13103132,15514905,-3099416642040273311,1361426844.256486,15716,-1480,728,nan,0.000000
1,5,2,0,13184454,15596094,8935147129945161728,1361426844.258132,18408,-3328,-676,nan,0.000000
1,5,2,0,13184454,15596094,8935147129945164349,1361426844.258132,16984,-2380,124,nan,0.000000
2,5,3,0,13184454,15596126,8935147129945166970,1361426844.258655,14892,-2100,-384,nan,0.000000
2,5,3,0,13184454,15596126,8935147129945169591,1361426844.258655,14804,-1980,-2168,nan,0.000000
2,5,3,0,13184454,15596126,8935147129945172212,1361426844.258655,16064,-3072,-2004,nan,0.000000
2,5,3,0,13184454,15596126,8935147129945174833,1361426844.258655,16556,-2448,-920,nan,0.000000
2,5,3,0,13184454,15596126,8935147129945177454,1361426844.258655,15124,-988,-692,nan,0.000000
2,5,4,0,13184454,15596158,8935147129945180075,1361426844.260143,15900,-1648,-996,nan,0.000000
2,5,4,0,13184454,15596158,8935147129945182696,1361426844.260143,16444,-828,-348,nan,0.000000
2,5,4,0,13184454,15596158,8935147129945185317,1361426844.260143,16116,8,188,nan,0.000000
2,5,4,0,13184454,15596158,8935147129945187938,1361426844.260143,16140,-380,-84,nan,0.000000
2,5,4,0,13184454,15596158,8935147129945190559,1361426844.260143,15872,-752,-84,nan,0.000000
2,5,5,0,13184454,15596190,8935147129945193180,1361426844.261345,16240,1792,352,nan,0.000000
2,5,5,0,13184454,15596190,8935147129945195801,1361426844.261345,16944,1072,476,nan,0.000000
2,5,5,0,13184454,15596190,8935147129945198422,1361426844.261345,17588,-1024,260,nan,0.000000
2,5,5,0,13184454,15596190,8935147129945201043,1361426844.261345,14580,-4104,-116,nan,0.000000
2,5,5,0,13184454,15596190,8935147129945203664,1361426844.261345,15696,-1064,768,nan,0.000000
2,5,6,0,13184454,15596222,8935147129945206285,1361426844.262338,16252,-3588,964,nan,0.000000
2,5,6,0,13184454,15596222,8935147129945208906,1361426844.262338,16544,-3064,812,nan,0.000000
2,5,6,0,13184454,15596222,8935147129945211527,1361426844.262338,15596,-3812,692,nan,0.000000
2,5,6,0,13184454,15596222,8935147129945214148,1361426844.262338,15256,-3156,632,nan,0.000000
2,5,6,0,13184454,15596222,8935147129945216769,1361426844.262338,15688,-3480,552,nan,0.000000
2,5,7,0,13184454,15596254,8935147129945219390,1361426844.263224,15800,-2876,988,nan,0.000000
2,5,7,0,13184454,15596254,8935147129945222011,1361426844.263224,15136,-2868,1472,nan,0.000000
2,5,7,0,13184454,15596254,8935147129945224632,1361426844.263224,15420,-2760,1752,nan,0.000000
2,5,7,0,13184454,15596254,8935147129945227253,1361426844.263224,15480,-2544,2252,nan,0.000000
2,5,7,0,13184454,15596254,8935147129945229874,1361426844.263224,15660,-2336,2188,nan,0.000000
1,5,9,0,13265775,15758692,2307607685316385798,1361426849.220017,15808,-596,-312,nan,0.000000
1,5,9,0,13265775,15758692,2307607685316388419,1361426849.220017,15764,-212,-448,nan,0.000000
2,5,10,0,13265775,15758724,2307607685316391040,1361426849.220547,16288,-376,-268,nan,0.000000
2,5,10,0,13265775,15758724,2307607685316393661,1361426849.220547,16268,-176,260,nan,0.000000
2,5,10,0,13265775,15758724,2307607685316396282,1361426849.220547,15988,80,612,nan,0.000000
2,5,10,0,13265775,15758724,2307607685316398903,1361426849.220547,16212,424,836,nan,0.000000
2,5,10,0,13265775,15758724,2307607685316401524,1361426849.220547,16160,548,1068,nan,0.000000
2,5,11,0,13265775,15758756,2307607685316404145,1361426849.221950,15812,548,1508,nan,0.000000
2,5,11,0,13265775,15758756,2307607685316406766,1361426849.221950,16984,344,1676,nan,0.000000
2,5,11,0,13265775,15758756,2307607685316409387,1361426849.221950,16536,-12,624,nan,0.000000
2,5,11,0,13265775,15758756,2307607685316412008,1361426849.221950,16628,-1268,164,nan,0.000000
2,5,11,0,13265775,15758756,2307607685316414629,1361426849.221950,15396,-2368,-1260,nan,0.000000
2,5,12,0,13265775,15758788,2307607685316417250,1361426849.222553,15300,-3016,-960,nan,0.000000
2,5,12,0,13265775,15758788,2307607685316419871,1361426849.222553,17004,-2040,-160,nan,0.000000
2,5,12,0,13265775,15758788,2307607685316422492,1361426849.222553,16632,-2348,-212,nan,0.000000
2,5,12,0,13265775,15758788,2307607685316425113,1361426849.222553,14876,-3020,-444,nan,0.000000
2,5,12,0,13265775,15758788,2307607685316427734,1361426849.222553,15752,-2452,-172,nan,0.000000
2,5,13,0,13265775,15758820,2307607685316430355,1361426849.223950,15628,-2128,-148,nan,0.000000
2,5,13,0,13265775,15758820,2307607685316432976,1361426849.223950,15684,-1644,344,nan,0.000000
2,5,13,0,13265775,15758820,2307607685316435597,1361426849.223950,15448,-2020,252,nan,0.000000
2,5,13,0,13265775,15758820,2307607685316438218,1361426849.223950,15776,-1180,260,nan,0.000000
2,5,13,0,13265775,15758820,2307607685316440839,1361426849.223950,16212,-1572,268,nan,0.000000
2,5,14,0,13265775,15758852,2307607685316443460,1361426849.224651,16440,-1320,500,nan,0.000000
2,5,14,0,13265775,15758852,2307607685316446081,1361426849.224651,17936,-2512,-908,nan,0.000000
2,5,14,0,13265775,15758852,2307607685316448702,1361426849.224651,16244,-1632,52,nan,0.000000
2,5,14,0,13265775,15758852,2307607685316451323,1361426849.224651,15792,-2412,-2064,nan,0.000000
2,5,14,0,13265775,15758852,2307607685316453944,1361426849.224651,14368,-1860,-2976,nan,0.000000
2,5,15,0,13265775,15758884,2307607685316456565,1361426849.225946,15652,-3104,-3168,nan,0.000000
2,5,15,0,13265775,15758884,2307607685316459186,1361426849.225946,16228,-2644,-2120,nan,0.000000
2,5,15,0,13265775,15758884,2307607685316461807,1361426849.225946,15096,-916,-1608,nan,0.000000
2,5,15,0,13265775,15758884,2307607685316464428,1361426849.225946,15560,-1164,-1948,nan,0.000000
2,5,15,0,13265775,15758884,2307607685316467049,1361426849.225946,15992,-756,-1040,nan,0.000000
1,5,0,0,13347096,15758916,-5118432281534422797,1361426849.226666,15836,-640,-1120,nan,0.000000
1,5,0,15,13347096,15758916,-5118432281534420176,1361426849.226666,16276,-248,-524,nan,0.000000
2,5,1,15,13347096,15758948,-5118432281534417555,1361426849.227952,18144,-1268,-552,nan,0.000000
2,5,1,15,13347096,15758948,-5118432281534414934,1361426849.227952,17716,-1164,-876,nan,0.000000
2,5,1,15,13347096,15758948,-5118432281534412313,1361426849.227952,14700,-4152,-1428,nan,0.000000
2,5,1,15,13347096,15758948,-5118432281534409692,1361426849.227952,14860,-2828,-300,nan,0.000000
2,5,1,15,13347096,15758948,-5118432281534407071,1361426849.227952,17360,-1756,664,nan,0.000000
2,5,2,15,13347096,15758980,-5118432281534404450,1361426849.228354,15780,-2596,344,nan,0.000000
2,5,2,15,13347096,15758980,-5118432281534401829,1361426849.228354,14520,-2744,1112,nan,0.000000
2,5,2,15,13347096,15758980,-5118432281534399208,1361426849.228354,15324,-2444,1176,nan,0.000000
2,5,2,15,13347096,15758980,-5118432281534396587,1361426849.228354,15748,-1852,1524,nan,0.000000
2,5,2,15,13347096,15758980,-5118432281534393966,1361426849.228354,15608,-1620,1760,nan,0.000000
2,5,3,15,13347096,15759012,-5118432281534391345,1361426849.229939,15216,-1496,1824,nan,0.000000
2,5,3,15,13347096,15759012,-5118432281534388724,1361426849.229939,15612,-1568,1916,nan,0.000000
2,5,3,15,13347096,15759012,-5118432281534386103,1361426849.229939,16744,-880,2604,nan,0.000000
2,5,3,15,13347096,15759012,-5118432281534383482,1361426849.229939,18636,-3036,904,nan,0.000000
2,5,3,15,13347096,15759012,-5118432281534380861,1361426849.229939,15816,-1640,1064,nan,0.000000
2,5,4,15,13347096,15759044,-5118432281534378240,1361426849.230669,15112,-2788,-1048,nan,0.000000
2,5,4,15,13347096,15759044,-5118432281534375619,1361426849.230669,14900,-3000,-1668,nan,0.000000
2,5,4,15,13347096,15759044,-5118432281534372998,1361426849.230669,16716,-3096,-988,nan,0.000000
2,5,4,15,13347096,15759044,-5118432281534370377,1361426849.230669,16088,-2240,-392,nan,0.000000
2,5,4,15,13347096,15759044,-5118432281534367756,1361426849.230669,15124,-1148,-644,nan,0.000000
2,5,5,15,13347096,15759075,-5118432281534365135,1361426849.231936,16436,-1212,-456,nan,0.000000
2,5,5,15,13347096,15759075,-5118432281534362514,1361426849.231936,16792,-460,-168,nan,0.000000
2,5,5,15,13347096,15759075,-5118432281534359893,1361426849.231936,16084,-60,-300,nan,0.000000
2,5,5,15,13347096,15759075,-5118432281534357272,1361426849.231936,16028,896,52,nan,0.000000
2,5,5,15,13347096,15759075,-5118432281534354651,1361426849.231936,15996,552,-144,nan,0.000000
2,5,6,15,13347096,15759108,-5118432281534352030,1361426851.700181,15752,-48,-848,nan,0.000000
2,5,6,15,13347096,15759108,-5118432281534349409,1361426851.700181,16068,-2252,-688,nan,0.000000
2,5,6,15,13347096,15759108,-5118432281534346788,1361426851.700181,16772,-2292,-1060,nan,0.000000
2,5,6,15,13347096,15759108,-5118432281534344167,1361426851.700181,15848,-2448,-184,nan,0.000000
2,5,6,15,13347096,15759108,-5118432281534341546,1361426851.700181,16024,-3700,-1044,nan,0.000000
1,5,7,0,13428418,15840015,5835878930896040188,1361426851.701993,15856,-3208,-776,nan,0.000000
1,5,7,1,13428418,15840015,5835878930896042809,1361426851.701993,15564,-2628,-340,nan,0.000000
2,5,8,1,13428418,15840047,5835878930896045430,1361426851.702942,15372,-2860,-4,nan,0.000000
2,5,8,1,13428418,15840047,5835878930896048051,1361426851.702942,15600,-2096,648,nan,0.000000
2,5,8,1,13428418,15840047,5835878930896050672,1361426851.702942,16272,-1812,1504,nan,0.000000
2,5,8,1,13428418,15840047,5835878930896053293,1361426851.702942,15980,-1412,1984,nan,0.000000
2,5,8,1,13428418,15840047,5835878930896055914,1361426851.702942,16584,-1340,2156,nan,0.000000
2,5,9,1,13428418,15840079,5835878930896058535,1361426851.707472,15608,-2700,1532,nan,0.000000
2,5,9,1,13428418,15840079,5835878930896061156,1361426851.707472,16116,-3520,408,nan,0.000000
2,5,9,1,13428418,15840079,5835878930896063777,1361426851.707472,15216,-2532,-1104,nan,0.000000
2,5,9,1,13428418,15840079,5835878930896066398,1361426851.707472,16316,-2928,-700,nan,0.000000
2,5,9,1,13428418,15840079,5835878930896069019,1361426851.707472,16132,-1696,-496,nan,0.000000
2,5,10,1,13428418,15840111,5835878930896071640,1361426851.710366,15692,-776,-536,nan,0.000000
2,5,10,1,13428418,15840111,5835878930896074261,1361426851.710366,15880,-852,-468,nan,0.000000
2,5,10,1,13428418,15840111,5835878930896076882,1361426851.710366,16112,-668,-304,nan,0.000000
2,5,10,1,13428418,15840111,5835878930896079503,1361426851.710366,16164,-696,-128,nan,0.000000
2,5,10,1,13428418,15840111,5835878930896082124,1361426851.710366,15832,-220,80,nan,0.000000
2,5,11,1,13428418,15840143,5835878930896084745,1361426851.713209,16208,672,348,nan,0.000000
2,5,11,1,13428418,15840143,5835878930896087366,1361426851.713209,16016,604,792,nan,0.000000
2,5,11,1,13428418,15840143,5835878930896089987,1361426851.713209,16320,604,648,nan,0.000000
2,5,11,1,13428418,15840143,5835878930896092608,1361426851.713209,16288,912,1080,nan,0.000000
2,5,11,1,13428418,15840143,5835878930896095229,1361426851.713209,18260,-904,1144,nan,0.000000
2,5,12,1,13428418,15840175,5835878930896097850,1361426851.715175,16068,-604,36,nan,0.000000
2,5,12,1,13428418,15840175,5835878930896100471,1361426851.715175,16336,-4648,-872,nan,0.000000
2,5,12,1,13428418,15840175,5835878930896103092,1361426851.715175,14796,-2732,-108,nan,0.000000
2,5,12,1,13428418,15840175,5835878930896105713,1361426851.715175,17344,-1216,1024,nan,0.000000
2,5,12,1,13428418,15840175,5835878930896108334,1361426851.715175,15492,-2196,-136,nan,0.000000
1,5,14,0,13509738,16002664,-6628162866845460476,1361426856.665824,18532,-1940,600,nan,0.000000
1,5,14,0,13509738,16002664,-6628162866845457855,1361426856.665824,18104,-1632,-272,nan,0.000000
2,5,15,0,13509738,16002696,-6628162866845455234,1361426856.666410,14716,-1960,-2392,nan,0.000000
2,5,15,0,13509738,16002696,-6628162866845452613,1361426856.666410,14680,-3560,-3132,nan,0.000000
2,5,15,0,13509738,16002696,-6628162866845449992,1361426856.666410,16036,-2572,-956,nan,0.000000
2,5,15,0,13509738,16002696,-6628162866845447371,1361426856.666410,14992,-864,-1096,nan,0.000000
2,5,15,0,13509738,16002696,-6628162866845444750,1361426856.666410,15632,-820,-1316,nan,0.000000
2,5,0,0,13509738,16002728,-6628162866845442129,1361426856.667819,16168,-1060,-896,nan,0.000000
2,5,0,0,13509738,16002728,-6628162866845439508,1361426856.667819,16040,-504,-680,nan,0.000000
2,5,0,0,13509738,16002728,-6628162866845436887,1361426856.667819,15680,-212,-536,nan,0.000000
2,5,0,0,13509738,16002728,-6628162866845434266,1361426856.667819,15964,-4,-376,nan,0.000000
2,5,0,0,13509738,16002728,-6628162866845431645,1361426856.667819,16612,-8,-196,nan,0.000000
2,5,1,0,13509738,16002760,-6628162866845429024,1361426856.672670,17664,-1328,-188,nan,0.000000
2,5,1,0,13509738,16002760,-6628162866845426403,1361426856.672670,16992,-1264,-1136,nan,0.000000
2,5,1,0,13509738,16002760,-6628162866845423782,1361426856.672670,15072,-2440,-724,nan,0.000000
2,5,1,0,13509738,16002760,-6628162866845421161,1361426856.672670,14896,-2940,-548,nan,0.000000
2,5,1,0,13509738,16002760,-6628162866845418540,1361426856.672670,17372,-1096,712,nan,0.000000
2,5,2,0,13509738,16002792,-6628162866845415919,1361426856.677723,16400,-2024,660,nan,0.000000
2,5,2,0,13509738,16002792,-6628162866845413298,1361426856.677723,14636,-1452,888,nan,0.000000
2,5,2,0,13509738,16002792,-6628162866845410677,1361426856.677723,15792,-1536,880,nan,0.000000
2,5,2,0,13509738,16002792,-6628162866845408056,1361426856.677723,16112,-896,1080,nan,0.000000
2,5,2,0,13509738,16002792,-6628162866845405435,1361426856.677723,15920,-1264,1024,nan,0.000000
2,5,3,0,13509738,16002824,-6628162866845402814,1361426856.681656,15764,-1268,1072,nan,0.000000
2,5,3,0,13509738,16002824,-6628162866845400193,1361426856.681656,15820,-1628,1368,nan,0.000000
2,5,3,0,13509738,16002824,-6628162866845397572,1361426856.681656,16048,-1712,840,nan,0.000000
2,5,3,0,13509738,16002824,-6628162866845394951,1361426856.681656,17596,-2216,-2624,nan,0.000000
2,5,3,0,13509738,16002824,-6628162866845392330,1361426856.681656,14480,532,-2688,nan,0.000000
2,5,4,0,13509738,16002856,-6628162866845389709,1361426856.687908,15536,-2640,-2556,nan,0.000000
2,5,4,0,13509738,16002856,-6628162866845387088,1361426856.687908,17368,-592,-1592,nan,0.000000
2,5,4,0,13509738,16002856,-6628162866845384467,1361426856.687908,15488,168,-1112,nan,0.000000
2,5,4,0,13509738,16002856,-6628162866845381846,1361426856.687908,15520,80,-1960,nan,0.000000
2,5,4,0,13509738,16002856,-6628162866845379225,1361426856.687908,16704,-504,-2480,nan,0.000000
1,5,5,0,13591057,16002888,-3964943392621525770,1361426856.694433,16728,620,-2380,nan,0.000000
1,5,5,15,13591057,16002888,-3964943392621523149,1361426856.694433,16080,-484,-2020,nan,0.000000
2,5,6,15,13591057,16002919,-3964943392621520528,1361426856.697537,16068,-516,-2152,nan,0.000000
2,5,6,15,13591057,16002919,-3964943392621517907,1361426856.697537,15736,-376,-2136,nan,0.000000
2,5,6,15,13591057,16002919,-3964943392621515286,1361426856.697537,16620,-828,-1960,nan,0.000000
2,5,6,15,13591057,16002919,-3964943392621512665,1361426856.697537,16052,-1264,-1800,nan,0.000000
2,5,6,15,13591057,16002919,-3964943392621510044,1361426856.697537,16008,-936,-1620,nan,0.000000
2,5,7,15,13591057,16002952,-3964943392621507423,1361426856.698273,16740,-1116,-1348,nan,0.000000
2,5,7,15,13591057,16002952,-3964943392621504802,1361426856.698273,15372,-2128,-860,nan,0.000000
2,5,7,15,13591057,16002952,-3964943392621502181,1361426856.698273,16524,-1700,-40,nan,0.000000
2,5,7,15,13591057,16002952,-3964943392621499560,1361426856.698273,16012,-1532,-128,nan,0.000000
2,5,7,15,13591057,16002952,-3964943392621496939,1361426856.698273,15076,-1580,244,nan,0.000000
2,5,8,15,13591057,16002983,-3964943392621494318,1361426856.703786,15580,-1676,-236,nan,0.000000
2,5,8,15,13591057,16002983,-3964943392621491697,1361426856.703786,16032,-2052,36,nan,0.000000
2,5,8,15,13591057,16002983,-3964943392621489076,1361426856.703786,15704,-1536,228,nan,0.000000
2,5,8,15,13591057,16002983,-3964943392621486455,1361426856.703786,15368,-1760,232,nan,0.000000
2,5,8,15,13591057,16002983,-3964943392621483834,1361426856.703786,15712,-1880,540,nan,0.000000
2,5,9,15,13591057,16003016,-3964943392621481213,1361426856.707537,16420,-1640,1564,nan,0.000000
2,5,9,15,13591057,16003016,-3964943392621478592,1361426856.707537,16712,288,1332,nan,0.000000
2,5,9,15,13591057,16003016,-3964943392621475971,1361426856.707537,18676,-3200,-1748,nan,0.000000
2,5,9,15,13591057,16003016,-3964943392621473350,1361426856.707537,16480,-1748,-900,nan,0.000000
2,5,9,15,13591057,16003016,-3964943392621470729,1361426856.707537,13796,-2576,-3764,nan,0.000000
2,5,10,15,13591057,16003047,-3964943392621468108,1361426856.712161,15944,-3744,-1468,nan,0.000000
2,5,10,15,13591057,16003047,-3964943392621465487,1361426856.712161,15740,-2036,-1424,nan,0.000000
2,5,10,15,13591057,16003047,-3964943392621462866,1361426856.712161,15384,-668,-1324,nan,0.000000
2,5,10,15,13591057,16003047,-3964943392621460245,1361426856.712161,15732,-1136,-1144,nan,0.000000
2,5,10,15,13591057,16003047,-3964943392621457624,1361426856.712161,16236,-788,-460,nan,0.000000
2,5,11,15,13591057,16003080,-3964943392621455003,1361426859.146106,15988,-744,-180,nan,0.000000
2,5,11,15,13591057,16003080,-3964943392621452382,1361426859.146106,15920,-40,-64,nan,0.000000
2,5,11,15,13591057,16003080,-3964943392621449761,1361426859.146106,16084,-804,372,nan,0.000000
2,5,11,15,13591057,16003080,-3964943392621447140,1361426859.146106,16676,-252,712,nan,0.000000
2,5,11,15,13591057,16003080,-3964943392621444519,1361426859.146106,17732,-872,-20,nan,0.000000
1,5,12,0,13672378,16083988,-4539671308828521217,1361426859.147748,15908,-2088,-696,nan,0.000000
1,5,12,1,13672378,16083988,-4539671308828518596,1361426859.147748,14708,-2712,-480,nan,0.000000
2,5,13,1,13672378,16084020,-4539671308828515975,1361426859.148828,17536,-2136,280,nan,0.000000
2,5,13,1,13672378,16084020,-4539671308828513354,1361426859.148828,16016,-2252,244,nan,0.000000
2,5,13,1,13672378,16084020,-4539671308828510733,1361426859.148828,14180,-2872,512,nan,0.000000
2,5,13,1,13672378,16084020,-4539671308828508112,1361426859.148828,15532,-3464,552,nan,0.000000
2,5,13,1,13672378,16084020,-4539671308828505491,1361426859.148828,15700,-2048,1288,nan,0.000000
2,5,14,1,13672378,16084052,-4539671308828502870,1361426859.150234,15344,-1808,1304,nan,0.000000
2,5,14,1,13672378,16084052,-4539671308828500249,1361426859.150234,15588,-956,1732,nan,0.000000
2,5,14,1,13672378,16084052,-4539671308828497628,1361426859.150234,15756,-936,2188,nan,0.000000
2,5,14,1,13672378,16084052,-4539671308828495007,1361426859.150234,19352,-2364,268,nan,0.000000
2,5,14,1,13672378,16084052,-4539671308828492386,1361426859.150234,16424,-2176,308,nan,0.000000
2,5,15,1,13672378,16084084,-4539671308828489765,1361426859.150971,15340,-2544,-2240,nan,0.000000
2,5,15,1,13672378,16084084,-4539671308828487144,1361426859.150971,14840,-3496,-3164,nan,0.000000
2,5,15,1,13672378,16084084,-4539671308828484523,1361426859.150971,16380,-3036,-1856,nan,0.000000
2,5,15,1,13672378,16084084,-4539671308828481902,1361426859.150971,16052,-1724,-1352,nan,0.000000
2,5,15,1,13672378,16084084,-4539671308828479281,1361426859.150971,15184,-1532,-1988,nan,0.000000
2,5,0,1,13672378,16084116,-4539671308828476660,1361426859.151805,16000,-1496,-1964,nan,0.000000
2,5,0,1,13672378,16084116,-4539671308828474039,1361426859.151805,16268,-1104,-1716,nan,0.000000
2,5,0,1,13672378,16084116,-4539671308828471418,1361426859.151805,16008,20,-1980,nan,0.000000
2,5,0,1,13672378,16084116,-4539671308828468797,1361426859.151805,15900,188,-1684,nan,0.000000
2,5,0,1,13672378,16084116,-4539671308828466176,1361426859.151805,16736,680,-1856,nan,0.000000
2,5,1,1,13672378,16084148,-4539671308828463555,1361426859.152499,16220,936,-1424,nan,0.000000
2,5,1,1,13672378,16084148,-4539671308828460934,1361426859.152499,16156,-1540,-2068,nan,0.000000
2,5,1,1,13672378,16084148,-4539671308828458313,1361426859.152499,15036,-3448,-1324,nan,0.000000
2,5,1,1,13672378,16084148,-4539671308828455692,1361426859.152499,15984,-2352,-360,nan,0.000000
2,5,1,1,13672378,16084148,-4539671308828453071,1361426859.152499,16312,-3596,64,nan,0.000000
2,5,2,1,13672378,16084180,-4539671308828450450,1361426861.627714,15668,-3184,348,nan,0.000000
2,5,2,1,13672378,16084180,-4539671308828447829,1361426861.627714,15592,-3784,516,nan,0.000000
2,5,2,1,13672378,16084180,-4539671308828445208,1361426861.627714,15876,-3660,508,nan,0.000000
2,5,2,1,13672378,16084180,-4539671308828442587,1361426861.627714,15540,-4076,568,nan,0.000000
2,5,2,1,13672378,16084180,-4539671308828439966,1361426861.627714,15508,-2704,1424,nan,0.000000
1,5,3,0,13753698,16165312,288855937739676673,1361426861.629683,15312,-3028,2744,nan,0.000000
1,5,3,0,13753698,16165312,288855937739679294,1361426861.629683,14948,-2712,3172,nan,0.000000
2,5,4,0,13753698,16165344,288855937739681915,1361426861.630036,16612,-2452,2804,nan,0.000000
2,5,4,0,13753698,16165344,288855937739684536,1361426861.630036,16024,-2996,1128,nan,0.000000
2,5,4,0,13753698,16165344,288855937739687157,1361426861.630036,15908,-2984,1052,nan,0.000000
2,5,4,0,13753698,16165344,288855937739689778,1361426861.630036,16324,-1052,-584,nan,0.000000
2,5,4,0,13753698,16165344,288855937739692399,1361426861.630036,16364,-356,-180,nan,0.000000
2,5,5,0,13753698,16165375,288855937739695020,1361426861.631712,15628,160,-84,nan,0.000000
2,5,5,0,13753698,16165375,288855937739697641,1361426861.631712,16008,-568,336,nan,0.000000
2,5,5,0,13753698,16165375,288855937739700262,1361426861.631712,16200,-24,660,nan,0.000000
2,5,5,0,13753698,16165375,288855937739702883,1361426861.631712,15884,-292,676,nan,0.000000
2,5,5,0,13753698,16165375,288855937739705504,1361426861.631712,16256,232,1004,nan,0.000000
2,5,6,0,13753698,16165408,288855937739708125,1361426861.632309,16296,-88,940,nan,0.000000
2,5,6,0,13753698,16165408,288855937739710746,1361426861.632309,16264,168,1044,nan,0.000000
2,5,6,0,13753698,16165408,288855937739713367,1361426861.632309,16968,-248,828,nan,0.000000
2,5,6,0,13753698,16165408,288855937739715988,1361426861.632309,17292,-816,292,nan,0.000000
2,5,6,0,13753698,16165408,288855937739718609,1361426861.632309,16256,-2324,-700,nan,0.000000
2,5,7,0,13753698,16165439,288855937739721230,1361426861.633675,14840,-3120,-568,nan,0.000000
2,5,7,0,13753698,16165439,288855937739723851,1361426861.633675,16124,-2204,428,nan,0.000000
2,5,7,0,13753698,16165439,288855937739726472,1361426861.633675,17328,-2028,656,nan,0.000000
2,5,7,0,13753698,16165439,288855937739729093,1361426861.633675,14644,-2200,712,nan,0.000000
2,5,7,0,13753698,16165439,288855937739731714,1361426861.633675,15220,-2424,1356,nan,0.000000
2,5,8,0,13753698,16165471,288855937739734335,1361426861.634497,15232,-1860,1564,nan,0.000000
2,5,8,0,13753698,16165471,288855937739736956,1361426861.634497,16036,-1360,1696,nan,0.000000
2,5,8,0,13753698,16165471,288855937739739577,1361426861.634497,15124,-884,2280,nan,0.000000
2,5,8,0,13753698,16165471,288855937739742198,1361426861.634497,15368,-1516,2252,nan,0.000000
2,5,8,0,13753698,16165471,288855937739744819,1361426861.634497,16916,-484,3328,nan,0.000000
2,5,9,0,13753698,16165503,288855937739747440,1361426864.109841,18320,-1900,1344,nan,0.000000
2,5,9,0,13753698,16165503,288855937739750061,1361426864.109841,17172,-2024,672,nan,0.000000
2,5,9,0,13753698,16165503,288855937739752682,1361426864.109841,14596,-2064,-1660,nan,0.000000
2,5,9,0,13753698,16165503,288855937739755303,1361426864.109841,15560,-3456,-2000,nan,0.000000
2,5,9,0,13753698,16165503,288855937739757924,1361426864.109841,16544,-1756,-232,nan,0.000000
1,5,10,0,13835017,16246635,-6916938623916752891,1361426864.111669,15708,-1040,-300,nan,0.000000
1,5,10,0,13835017,16246635,-6916938623916750270,1361426864.111669,15836,-816,0,nan,0.000000
2,5,11,0,13835017,16246667,-6916938623916747649,1361426864.112125,16088,-760,644,nan,0.000000
2,5,11,0,13835017,16246667,-6916938623916745028,1361426864.112125,15944,-328,560,nan,0.000000
2,5,11,0,13835017,16246667,-6916938623916742407,1361426864.112125,15860,-320,880,nan,0.000000
2,5,11,0,13835017,16246667,-6916938623916739786,1361426864.112125,16360,-648,1024,nan,0.000000
2,5,11,0,13835017,16246667,-6916938623916737165,1361426864.112125,18092,-768,1148,nan,0.000000
2,5,12,0,13835017,16246699,-6916938623916734544,1361426864.113650,16544,-1460,-932,nan,0.000000
2,5,12,0,13835017,16246699,-6916938623916731923,1361426864.113650,15300,-3524,-1004,nan,0.000000
2,5,12,0,13835017,16246699,-6916938623916729302,1361426864.113650,15172,-2884,-728,nan,0.000000
2,5,12,0,13835017,16246699,-6916938623916726681,1361426864.113650,17132,-3388,16,nan,0.000000
2,5,12,0,13835017,16246699,-6916938623916724060,1361426864.113650,15484,-3896,-564,nan,0.000000
2,5,13,0,13835017,16246731,-6916938623916721439,1361426864.114740,14684,-3856,216,nan,0.000000
2,5,13,0,13835017,16246731,-6916938623916718818,1361426864.114740,14944,-4364,116,nan,0.000000
2,5,13,0,13835017,16246731,-6916938623916716197,1361426864.114740,15816,-3420,272,nan,0.000000
2,5,13,0,13835017,16246731,-6916938623916713576,1361426864.114740,15500,-2500,1152,nan,0.000000
2,5,13,0,13835017,16246731,-6916938623916710955,1361426864.114740,15184,-3004,1388,nan,0.000000
2,5,14,0,13835017,16246763,-6916938623916708334,1361426864.115584,17452,-3092,-248,nan,0.000000
2,5,14,0,13835017,16246763,-6916938623916705713,1361426864.115584,14900,-3668,-696,nan,0.000000
2,5,14,0,13835017,16246763,-6916938623916703092,1361426864.115584,15720,-4260,-1804,nan,0.000000
2,5,14,0,13835017,16246763,-6916938623916700471,1361426864.115584,16724,-3068,-1564,nan,0.000000
2,5,14,0,13835017,16246763,-6916938623916697850,1361426864.115584,15948,-1748,-1128,nan,0.000000
2,5,15,0,13835017,16246795,-6916938623916695229,1361426864.116523,15880,-1736,-1500,nan,0.000000
2,5,15,0,13835017,16246795,-6916938623916692608,1361426864.116523,15960,-1060,-1548,nan,0.000000
2,5,15,0,13835017,16246795,-6916938623916689987,1361426864.116523,16128,-696,-1812,nan,0.000000
2,5,15,0,13835017,16246795,-6916938623916687366,1361426864.116523,16340,-1588,-1800,nan,0.000000
2,5,15,0,13835017,16246795,-6916938623916684745,1361426864.116523,15556,160,-1440,nan,0.000000
2,5,0,0,13835017,16246827,-6916938623916682124,1361426866.591842,15780,-2112,-1300,nan,0.000000
2,5,0,0,13835017,16246827,-6916938623916679503,1361426866.591842,15684,-2868,148,nan,0.000000
2,5,0,0,13835017,16246827,-6916938623916676882,1361426866.591842,16964,-1208,1272,nan,0.000000
2,5,0,0,13835017,16246827,-6916938623916674261,1361426866.591842,16584,-2348,944,nan,0.000000
2,5,0,0,13835017,16246827,-6916938623916671640,1361426866.591842,15620,-2152,1172,nan,0.000000
1,5,1,0,13916336,16327959,-7781994806607221510,1361426866.593581,15796,-2696,1432,nan,0.000000
1,5,1,0,13916336,16327959,-7781994806607218889,1361426866.593581,15460,-2840,1248,nan,0.000000
2,5,2,0,13916336,16327991,-7781994806607216268,1361426866.594183,15404,-2120,1760,nan,0.000000
2,5,2,0,13916336,16327991,-7781994806607213647,1361426866.594183,15516,-2488,2164,nan,0.000000
2,5,2,0,13916336,16327991,-7781994806607211026,1361426866.594183,15596,-2444,2548,nan,0.000000
2,5,2,0,13916336,16327991,-7781994806607208405,1361426866.594183,15896,-2444,2656,nan,0.000000
2,5,2,0,13916336,16327991,-7781994806607205784,1361426866.594183,15744,-1984,3188,nan,0.000000
2,5,3,0,13916336,16328023,-7781994806607203163,1361426866.595603,17228,-2268,820,nan,0.000000
2,5,3,0,13916336,16328023,-7781994806607200542,1361426866.595603,15716,-1488,744,nan,0.000000
2,5,3,0,13916336,16328023,-7781994806607197921,1361426866.595603,15772,-1496,-640,nan,0.000000
2,5,3,0,13916336,16328023,-7781994806607195300,1361426866.595603,16528,220,-900,nan,0.000000
2,5,3,0,13916336,16328023,-7781994806607192679,1361426866.595603,15556,28,140,nan,0.000000
2,5,4,0,13916336,16328055,-7781994806607190058,1361426866.596774,15892,624,28,nan,0.000000
2,5,4,0,13916336,16328055,-7781994806607187437,1361426866.596774,16160,620,400,nan,0.000000
2,5,4,0,13916336,16328055,-7781994806607184816,1361426866.596774,15992,676,724,nan,0.000000
2,5,4,0,13916336,16328055,-7781994806607182195,1361426866.596774,16156,1268,828,nan,0.000000
2,5,4,0,13916336,16328055,-7781994806607179574,1361426866.596774,15948,1292,908,nan,0.000000
2,5,5,0,13916336,16328087,-7781994806607176953,1361426866.597576,16024,844,688,nan,0.000000
2,5,5,0,13916336,16328087,-7781994806607174332,1361426866.597576,16544,1112,1324,nan,0.000000
2,5,5,0,13916336,16328087,-7781994806607171711,1361426866.597576,18464,592,776,nan,0.000000
2,5,5,0,13916336,16328087,-7781994806607169090,1361426866.597576,17128,-1416,-1092,nan,0.000000
2,5,5,0,13916336,16328087,-7781994806607166469,1361426866.597576,14408,-3060,-1500,nan,0.000000
2,5,6,0,13916336,16328119,-7781994806607163848,1361426866.598306,16232,-1388,32,nan,0.000000
2,5,6,0,13916336,16328119,-7781994806607161227,1361426866.598306,16960,-1524,-336,nan,0.000000
2,5,6,0,13916336,16328119,-7781994806607158606,1361426866.598306,14476,-1612,-224,nan,0.000000
2,5,6,0,13916336,16328119,-7781994806607155985,1361426866.598306,15424,-1348,616,nan,0.000000
2,5,6,0,13916336,16328119,-7781994806607153364,1361426866.598306,15384,-964,404,nan,0.000000
2,5,7,0,13916336,16328150,-7781994806607150743,1361426869.073833,15568,-364,844,nan,0.000000
2,5,7,0,13916336,16328150,-7781994806607148122,1361426869.073833,15716,-136,1072,nan,0.000000
2,5,7,0,13916336,16328150,-7781994806607145501,1361426869.073833,15928,-124,1372,nan,0.000000
2,5,7,0,13916336,16328150,-7781994806607142880,1361426869.073833,17008,1612,2452,nan,0.000000
2,5,7,0,13916336,16328150,-7781994806607140259,1361426869.073833,20044,-2784,-752,nan,0.000000
1,5,8,0,13997654,16409281,3460023452021115907,1361426869.076300,14792,-4744,-4164,nan,0.000000
1,5,8,0,13997654,16409281,3460023452021118528,1361426869.076300,15232,-3260,-1256,nan,0.000000
2,5,9,0,13997654,16409313,3460023452021121149,1361426869.076668,14744,-1300,-712,nan,0.000000
2,5,9,0,13997654,16409313,3460023452021123770,1361426869.076668,15608,156,-1160,nan,0.000000
2,5,9,0,13997654,16409313,3460023452021126391,1361426869.076668,15880,-1088,-576,nan,0.000000
2,5,9,0,13997654,16409313,3460023452021129012,1361426869.076668,15852,-260,428,nan,0.000000
2,5,9,0,13997654,16409313,3460023452021131633,1361426869.076668,16132,-76,144,nan,0.000000
2,5,10,0,13997654,16409345,3460023452021134254,1361426869.077432,15800,916,848,nan,0.000000
2,5,10,0,13997654,16409345,3460023452021136875,1361426869.077432,15800,1648,196,nan,0.000000
2,5,10,0,13997654,16409345,3460023452021139496,1361426869.077432,18292,-1520,584,nan,0.000000
2,5,10,0,13997654,16409345,3460023452021142117,1361426869.077432,17544,-5468,-1640,nan,0.000000
2,5,10,0,13997654,16409345,3460023452021144738,1361426869.077432,14420,-4104,-376,nan,0.000000
2,5,11,0,13997654,16409377,3460023452021147359,1361426869.078253,15796,-2912,564,nan,0.000000
2,5,11,0,13997654,16409377,3460023452021149980,1361426869.078253,15944,-4992,-336,nan,0.000000
2,5,11,0,13997654,16409377,3460023452021152601,1361426869.078253,14700,-4860,372,nan,0.000000
2,5,11,0,13997654,16409377,3460023452021155222,1361426869.078253,14880,-4884,500,nan,0.000000
2,5,11,0,13997654,16409377,3460023452021157843,1361426869.078253,15004,-4596,580,nan,0.000000
2,5,12,0,13997654,16409409,3460023452021160464,1361426869.078957,15676,-3668,1036,nan,0.000000
2,5,12,0,13997654,16409409,3460023452021163085,1361426869.078957,15304,-3288,1436,nan,0.000000
2,5,12,0,13997654,16409409,3460023452021165706,1361426869.078957,15876,-3340,1732,nan,0.000000
2,5,12,0,13997654,16409409,3460023452021168327,1361426869.078957,16064,-2404,1936,nan,0.000000
2,5,12,0,13997654,16409409,3460023452021170948,1361426869.078957,16504,-3868,1268,nan,0.000000
2,5,13,0,13997654,16409441,3460023452021173569,1361426869.079881,15136,-2840,1280,nan,0.000000
2,5,13,0,13997654,16409441,3460023452021176190,1361426869.079881,15704,-3352,660,nan,0.000000
2,5,13,0,13997654,16409441,3460023452021178811,1361426869.079881,15088,-1072,460,nan,0.000000
2,5,13,0,13997654,16409441,3460023452021181432,1361426869.079881,17548,-1016,448,nan,0.000000
2,5,13,0,13997654,16409441,3460023452021184053,1361426869.079881,16156,-368,848,nan,0.000000
2,5,14,0,13997654,16409473,3460023452021186674,1361426871.555548,15432,-972,292,nan,0.000000
2,5,14,0,13997654,16409473,3460023452021189295,1361426871.555548,16408,-388,248,nan,0.000000
2,5,14,0,13997654,16409473,3460023452021191916,1361426871.555548,16264,-200,736,nan,0.000000
2,5,14,0,13997654,16409473,3460023452021194537,1361426871.555548,15972,536,392,nan,0.000000
2,5,14,0,13997654,16409473,3460023452021197158,1361426871.555548,16480,940,1032,nan,0.000000
1,5,15,0,14078971,16490602,-576323321533029375,1361426871.556644,16696,432,1820,nan,0.000000
1,5,15,0,14078971,16490602,-576323321533026754,1361426871.556644,17496,-1024,1044,nan,0.000000
2,5,0,0,14078971,16490633,-576323321533024133,1361426871.557511,13968,-2640,-336,nan,0.000000
2,5,0,0,14078971,16490633,-576323321533021512,1361426871.557511,14912,-3048,1320,nan,0.000000
2,5,0,0,14078971,16490633,-576323321533018891,1361426871.557511,17512,-2852,840,nan,0.000000
2,5,0,0,14078971,16490633,-576323321533016270,1361426871.557511,16832,-3040,768,nan,0.000000
2,5,0,0,14078971,16490633,-576323321533013649,1361426871.557511,15476,-3840,1044,nan,0.000000
2,5,1,0,14078971,16490666,-576323321533011028,1361426871.558332,15968,-1844,1192,nan,0.000000
2,5,1,0,14078971,16490666,-576323321533008407,1361426871.558332,16384,-1580,1900,nan,0.000000
2,5,1,0,14078971,16490666,-576323321533005786,1361426871.558332,15280,-1776,2672,nan,0.000000
2,5,1,0,14078971,16490666,-576323321533003165,1361426871.558332,14792,-2212,3116,nan,0.000000
2,5,1,0,14078971,16490666,-576323321533000544,1361426871.558332,15112,-1712,3968,nan,0.000000
2,5,2,0,14078971,16490697,-576323321532997923,1361426871.559434,15036,-1880,4380,nan,0.000000
2,5,2,0,14078971,16490697,-576323321532995302,1361426871.559434,15096,-2216,4400,nan,0.000000
2,5,2,0,14078971,16490697,-576323321532992681,1361426871.559434,17276,-2292,3764,nan,0.000000
2,5,2,0,14078971,16490697,-576323321532990060,1361426871.559434,15796,-2752,3088,nan,0.000000
2,5,2,0,14078971,16490697,-576323321532987439,1361426871.559434,16740,-2656,2508,nan,0.000000
2,5,3,0,14078971,16490729,-576323321532984818,1361426871.561477,14768,-2608,916,nan,0.000000
2,5,3,0,14078971,16490729,-576323321532982197,1361426871.561477,15440,-1596,148,nan,0.000000
2,5,3,0,14078971,16490729,-576323321532979576,1361426871.561477,16608,-1852,500,nan,0.000000
2,5,3,0,14078971,16490729,-576323321532976955,1361426871.561477,15484,-220,1176,nan,0.000000
2,5,3,0,14078971,16490729,-576323321532974334,1361426871.561477,15888,-1344,476,nan,0.000000
2,5,4,0,14078971,16490761,-576323321532971713,1361426871.562343,15756,-824,1120,nan,0.000000
2,5,4,0,14078971,16490761,-576323321532969092,1361426871.562343,16340,-232,1036,nan,0.000000
2,5,4,0,14078971,16490761,-576323321532966471,1361426871.562343,16192,-764,932,nan,0.000000
2,5,4,0,14078971,16490761,-576323321532963850,1361426871.562343,16112,-56,1172,nan,0.000000
2,5,4,0,14078971,16490761,-576323321532961229,1361426871.562343,16220,212,644,nan,0.000000
2,5,5,0,14078971,16490793,-576323321532958608,1361426874.037699,17680,-536,612,nan,0.000000
2,5,5,0,14078971,16490793,-576323321532955987,1361426874.037699,17192,-1696,-592,nan,0.000000
2,5,5,0,14078971,16490793,-576323321532953366,1361426874.037699,15864,-3052,-540,nan,0.000000
2,5,5,0,14078971,16490793,-576323321532950745,1361426874.037699,14336,-3180,-388,nan,0.000000
2,5,5,0,14078971,16490793,-576323321532948124,1361426874.037699,17144,-2092,428,nan,0.000000
1,5,6,0,14160288,16571923,-5693287730687810558,1361426874.038880,14128,-2848,600,nan,0.000000
1,5,6,0,14160288,16571923,-5693287730687807937,1361426874.038880,15632,-2184,1024,nan,0.000000
2,5,7,0,14160288,16571955,-5693287730687805316,1361426874.039400,15568,-1616,1028,nan,0.000000
2,5,7,0,14160288,16571955,-5693287730687802695,1361426874.039400,15692,-2000,780,nan,0.000000
2,5,7,0,14160288,16571955,-5693287730687800074,1361426874.039400,15592,-1516,1120,nan,0.000000
2,5,7,0,14160288,16571955,-5693287730687797453,1361426874.039400,15596,-760,1224,nan,0.000000
2,5,7,0,14160288,16571955,-5693287730687794832,1361426874.039400,16004,-676,1908,nan,0.000000
2,5,8,0,14160288,16571987,-5693287730687792211,1361426874.040363,17428,-760,1348,nan,0.000000
2,5,8,0,14160288,16571987,-5693287730687789590,1361426874.040363,20340,-2960,204,nan,0.000000
2,5,8,0,14160288,16571987,-5693287730687786969,1361426874.040363,13960,-1484,-844,nan,0.000000
2,5,8,0,14160288,16571987,-5693287730687784348,1361426874.040363,14088,-4892,-3336,nan,0.000000
2,5,8,0,14160288,16571987,-5693287730687781727,1361426874.040363,16972,-4400,-492,nan,0.000000
2,5,9,0,14160288,16572019,-5693287730687779106,1361426874.041376,15316,-1400,-312,nan,0.000000
2,5,9,0,14160288,16572019,-5693287730687776485,1361426874.041376,15452,-1804,-660,nan,0.000000
2,5,9,0,14160288,16572019,-5693287730687773864,1361426874.041376,16156,-1136,-336,nan,0.000000
2,5,9,0,14160288,16572019,-5693287730687771243,1361426874.041376,16164,-1132,188,nan,0.000000
2,5,9,0,14160288,16572019,-5693287730687768622,1361426874.041376,15784,-684,388,nan,0.000000
2,5,10,0,14160288,16572051,-5693287730687766001,1361426874.042150,16032,-324,264,nan,0.000000
2,5,10,0,14160288,16572051,-5693287730687763380,1361426874.042150,15868,60,312,nan,0.000000
2,5,10,0,14160288,16572051,-5693287730687760759,1361426874.042150,16040,548,1208,nan,0.000000
2,5,10,0,14160288,16572051,-5693287730687758138,1361426874.042150,18196,-1068,692,nan,0.000000
2,5,10,0,14160288,16572051,-5693287730687755517,1361426874.042150,16692,-1556,-964,nan,0.000000
2,5,11,0,14160288,16572083,-5693287730687752896,1361426874.043377,15232,-952,-212,nan,0.000000
2,5,11,0,14160288,16572083,-5693287730687750275,1361426874.043377,15432,-3124,-404,nan,0.000000
2,5,11,0,14160288,16572083,-5693287730687747654,1361426874.043377,15516,-4512,-732,nan,0.000000
2,5,11,0,14160288,16572083,-5693287730687745033,1361426874.043377,16684,-2956,-480,nan,0.000000
2,5,11,0,14160288,16572083,-5693287730687742412,1361426874.043377,16064,-3600,-336,nan,0.000000
2,5,12,0,14160288,16572115,-5693287730687739791,1361426876.519520,15276,-3356,-60,nan,0.000000
2,5,12,0,14160288,16572115,-5693287730687737170,1361426876.519520,15336,-3544,-92,nan,0.000000
2,5,12,0,14160288,16572115,-5693287730687734549,1361426876.519520,15572,-2728,420,nan,0.000000
2,5,12,0,14160288,16572115,-5693287730687731928,1361426876.519520,15384,-2736,952,nan,0.000000
2,5,12,0,14160288,16572115,-5693287730687729307,1361426876.519520,15824,-1920,1236,nan,0.000000
1,5,13,0,14241603,16653241,-6557477508684724993,1361426876.520408,16696,-4196,172,nan,0.000000
1,5,13,0,14241603,16653241,-6557477508684722372,1361426876.520408,14780,-1484,1196,nan,0.000000
2,5,14,0,14241603,16653273,-6557477508684719751,1361426876.521322,16200,-2164,400,nan,0.000000
2,5,14,0,14241603,16653273,-6557477508684717130,1361426876.521322,14876,-1576,-352,nan,0.000000
2,5,14,0,14241603,16653273,-6557477508684714509,1361426876.521322,16028,-1816,-992,nan,0.000000
2,5,14,0,14241603,16653273,-6557477508684711888,1361426876.521322,17936,-988,-552,nan,0.000000
2,5,14,0,14241603,16653273,-6557477508684709267,1361426876.521322,15672,140,-832,nan,0.000000
2,5,15,0,14241603,16653305,-6557477508684706646,1361426876.523684,15752,36,-760,nan,0.000000
2,5,15,0,14241603,16653305,-6557477508684704025,1361426876.523684,16468,100,-760,nan,0.000000
2,5,15,0,14241603,16653305,-6557477508684701404,1361426876.523684,16100,388,-648,nan,0.000000
2,5,15,0,14241603,16653305,-6557477508684698783,1361426876.523684,16612,-344,-524,nan,0.000000
2,5,15,0,14241603,16653305,-6557477508684696162,1361426876.523684,15976,-1000,-440,nan,0.000000
2,5,0,0,14241603,16653337,-6557477508684693541,1361426876.526963,15272,-3468,-380,nan,0.000000
2,5,0,0,14241603,16653337,-6557477508684690920,1361426876.526963,16424,-1868,532,nan,0.000000
2,5,0,0,14241603,16653337,-6557477508684688299,1361426876.526963,16032,-2480,1912,nan,0.000000
2,5,0,0,14241603,16653337,-6557477508684685678,1361426876.526963,16476,-2820,1084,nan,0.000000
2,5,0,0,14241603,16653337,-6557477508684683057,1361426876.526963,15328,-2032,1352,nan,0.000000
2,5,1,0,14241603,16653369,-6557477508684680436,1361426876.531478,15604,-1660,1688,nan,0.000000
2,5,1,0,14241603,16653369,-6557477508684677815,1361426876.531478,15340,-2160,1992,nan,0.000000
2,5,1,0,14241603,16653369,-6557477508684675194,1361426876.531478,15712,-1896,2684,nan,0.000000
2,5,1,0,14241603,16653369,-6557477508684672573,1361426876.531478,15224,-1444,2168,nan,0.000000
2,5,1,0,14241603,16653369,-6557477508684669952,1361426876.531478,17084,-1180,2604,nan,0.000000
2,5,2,0,14241603,16653401,-6557477508684667331,1361426876.535077,17108,-3360,1440,nan,0.000000
2,5,2,0,14241603,16653401,-6557477508684664710,1361426876.535077,15724,-1736,1508,nan,0.000000
2,5,2,0,14241603,16653401,-6557477508684662089,1361426876.535077,15844,-3348,-256,nan,0.000000
2,5,2,0,14241603,16653401,-6557477508684659468,1361426876.535077,14824,-2088,-1256,nan,0.000000
2,5,2,0,14241603,16653401,-6557477508684656847,1361426876.535077,16164,-2264,-1884,nan,0.000000
1,5,4,0,14322917,16815877,4682653991882648828,1361426881.483477,16060,192,-932,nan,0.000000
1,5,4,0,14322917,16815877,4682653991882651449,1361426881.483477,15940,0,-888,nan,0.000000
2,5,5,0,14322917,16815909,4682653991882654070,1361426881.484204,16664,-580,-1312,nan,0.000000
2,5,5,0,14322917,16815909,4682653991882656691,1361426881.484204,17760,-1928,-1720,nan,0.000000
2,5,5,0,14322917,16815909,4682653991882659312,1361426881.484204,16780,-1560,-3164,nan,0.000000
2,5,5,0,14322917,16815909,4682653991882661933,1361426881.484204,14712,-3300,-2748,nan,0.000000
2,5,5,0,14322917,16815909,4682653991882664554,1361426881.484204,14764,-4188,-2132,nan,0.000000
2,5,6,0,14322917,16815941,4682653991882667175,1361426881.485249,16608,-2720,-1580,nan,0.000000
2,5,6,0,14322917,16815941,4682653991882669796,1361426881.485249,15880,-2136,-932,nan,0.000000
2,5,6,0,14322917,16815941,4682653991882672417,1361426881.485249,14700,-2500,-728,nan,0.000000
2,5,6,0,14322917,16815941,4682653991882675038,1361426881.485249,15292,-2600,-516,nan,0.000000
2,5,6,0,14322917,16815941,4682653991882677659,1361426881.485249,15692,-2116,-12,nan,0.000000
2,5,7,0,14322917,16815973,4682653991882680280,1361426881.486015,15876,-1588,348,nan,0.000000
2,5,7,0,14322917,16815973,4682653991882682901,1361426881.486015,15620,-1596,948,nan,0.000000
2,5,7,0,14322917,16815973,4682653991882685522,1361426881.486015,15780,-1932,1028,nan,0.000000
2,5,7,0,14322917,16815973,4682653991882688143,1361426881.486015,15996,-1600,2424,nan,0.000000
2,5,7,0,14322917,16815973,4682653991882690764,1361426881.486015,17796,-2052,928,nan,0.000000
2,5,8,0,14322917,16816005,4682653991882693385,1361426881.487196,17992,-2524,-84,nan,0.000000
2,5,8,0,14322917,16816005,4682653991882696006,1361426881.487196,14888,-1884,-592,nan,0.000000
2,5,8,0,14322917,16816005,4682653991882698627,1361426881.487196,14004,-1864,-2344,nan,0.000000
2,5,8,0,14322917,16816005,4682653991882701248,1361426881.487196,16836,-3224,-932,nan,0.000000
2,5,8,0,14322917,16816005,4682653991882703869,1361426881.487196,15996,-1576,156,nan,0.000000
2,5,9,0,14322917,16816037,4682653991882706490,1361426881.487958,15280,-608,-352,nan,0.000000
2,5,9,0,14322917,16816037,4682653991882709111,1361426881.487958,16072,-760,-224,nan,0.000000
2,5,9,0,14322917,16816037,4682653991882711732,1361426881.487958,16260,-428,612,nan,0.000000
2,5,9,0,14322917,16816037,4682653991882714353,1361426881.487958,16248,-272,1028,nan,0.000000
2,5,9,0,14322917,16816037,4682653991882716974,1361426881.487958,15716,-224,1324,nan,0.000000
2,5,10,0,14322917,16816069,4682653991882719595,1361426881.489175,16020,-56,1444,nan,0.000000
2,5,10,0,14322917,16816069,4682653991882722216,1361426881.489175,16100,228,1916,nan,0.000000
2,5,10,0,14322917,16816069,4682653991882724837,1361426881.489175,17440,-936,1160,nan,0.000000
2,5,10,0,14322917,16816069,4682653991882727458,1361426881.489175,16220,-1652,404,nan,0.000000
2,5,10,0,14322917,16816069,4682653991882730079,1361426881.489175,16716,-1540,904,nan,0.000000
1,5,11,0,14404231,16816101,8937362678020482053,1361426881.490067,15332,-3576,112,nan,0.000000
1,5,11,15,14404231,16816101,8937362678020484674,1361426881.490067,17556,-2008,832,nan,0.000000
2,5,12,15,14404231,16816133,8937362678020487295,1361426881.491178,15860,-3068,708,nan,0.000000
2,5,12,15,14404231,16816133,8937362678020489916,1361426881.491178,14720,-3152,1088,nan,0.000000
2,5,12,15,14404231,16816133,8937362678020492537,1361426881.491178,15476,-2992,1228,nan,0.000000
2,5,12,15,14404231,16816133,8937362678020495158,1361426881.491178,15800,-2180,1420,nan,0.000000
2,5,12,15,14404231,16816133,8937362678020497779,1361426881.491178,15500,-1928,2084,nan,0.000000
2,5,13,15,14404231,16816165,8937362678020500400,1361426881.491659,16032,220,2168,nan,0.000000
2,5,13,15,14404231,16816165,8937362678020503021,1361426881.491659,16372,-1892,2000,nan,0.000000
2,5,13,15,14404231,16816165,8937362678020505642,1361426881.491659,15592,-932,-340,nan,0.000000
2,5,13,15,14404231,16816165,8937362678020508263,1361426881.491659,16888,-2168,-1760,nan,0.000000
2,5,13,15,14404231,16816165,8937362678020510884,1361426881.491659,14428,-536,-1836,nan,0.000000
2,5,14,15,14404231,16816197,8937362678020513505,1361426881.493221,15864,-2320,-2572,nan,0.000000
2,5,14,15,14404231,16816197,8937362678020516126,1361426881.493221,16744,-1360,-2108,nan,0.000000
2,5,14,15,14404231,16816197,8937362678020518747,1361426881.493221,16152,-620,-2348,nan,0.000000
2,5,14,15,14404231,16816197,8937362678020521368,1361426881.493221,16056,-372,-3108,nan,0.000000
2,5,14,15,14404231,16816197,8937362678020523989,1361426881.493221,16280,-1344,-3140,nan,0.000000
2,5,15,15,14404231,16816229,8937362678020526610,1361426881.494690,15940,-1324,-3024,nan,0.000000
2,5,15,15,14404231,16816229,8937362678020529231,1361426881.494690,15800,-844,-3060,nan,0.000000
2,5,15,15,14404231,16816229,8937362678020531852,1361426881.494690,16352,-1764,-2632,nan,0.000000
2,5,15,15,14404231,16816229,8937362678020534473,1361426881.494690,16484,-988,-2080,nan,0.000000
2,5,15,15,14404231,16816229,8937362678020537094,1361426881.494690,16244,-772,-1488,nan,0.000000
2,5,0,15,14404231,16816261,8937362678020539715,1361426881.496666,15556,-972,-912,nan,0.000000
2,5,0,15,14404231,16816261,8937362678020542336,1361426881.496666,15972,-28,-184,nan,0.000000
2,5,0,15,14404231,16816261,8937362678020544957,1361426881.496666,15864,-140,104,nan,0.000000
2,5,0,15,14404231,16816261,8937362678020547578,1361426881.496666,15664,-1180,1056,nan,0.000000
2,5,0,15,14404231,16816261,8937362678020550199,1361426881.496666,16988,-808,1636,nan,0.000000
2,5,1,15,14404231,16816293,8937362678020552820,1361426883.963333,15688,-1228,504,nan,0.000000
2,5,1,15,14404231,16816293,8937362678020555441,1361426883.963333,14992,-988,20,nan,0.000000
2,5,1,15,14404231,16816293,8937362678020558062,1361426883.963333,16124,-2120,-108,nan,0.000000
2,5,1,15,14404231,16816293,8937362678020560683,1361426883.963333,16224,-1648,-68,nan,0.000000
2,5,1,15,14404231,16816293,8937362678020563304,1361426883.963333,16064,-2412,-124,nan,0.000000
1,5,2,0,14485545,16897194,1441192547928700929,1361426883.965150,14972,-2412,108,nan,0.000000
1,5,2,1,14485545,16897194,1441192547928703550,1361426883.965150,16396,-2232,1072,nan,0.000000
2,5,3,1,14485545,16897226,1441192547928706171,1361426883.965903,16136,-1112,1968,nan,0.000000
2,5,3,1,14485545,16897226,1441192547928708792,1361426883.965903,16296,-988,2096,nan,0.000000
2,5,3,1,14485545,16897226,1441192547928711413,1361426883.965903,18784,-2008,-160,nan,0.000000
2,5,3,1,14485545,16897226,1441192547928714034,1361426883.965903,14964,-504,-180,nan,0.000000
2,5,3,1,14485545,16897226,1441192547928716655,1361426883.965903,15524,-2424,-2168,nan,0.000000
2,5,4,1,14485545,16897257,1441192547928719276,1361426883.967123,16124,-2740,-424,nan,0.000000
2,5,4,1,14485545,16897257,1441192547928721897,1361426883.967123,15992,-344,-268,nan,0.000000
2,5,4,1,14485545,16897257,1441192547928724518,1361426883.967123,15764,-716,-284,nan,0.000000
2,5,4,1,14485545,16897257,1441192547928727139,1361426883.967123,15756,-188,-12,nan,0.000000
2,5,4,1,14485545,16897257,1441192547928729760,1361426883.967123,15892,-268,-52,nan,0.000000
2,5,5,1,14485545,16897289,1441192547928732381,1361426883.967935,15508,-552,20,nan,0.000000
2,5,5,1,14485545,16897289,1441192547928735002,1361426883.967935,16072,720,-40,nan,0.000000
2,5,5,1,14485545,16897289,1441192547928737623,1361426883.967935,17676,-1324,-800,nan,0.000000
2,5,5,1,14485545,16897289,1441192547928740244,1361426883.967935,17612,-1044,292,nan,0.000000
2,5,5,1,14485545,16897289,1441192547928742865,1361426883.967935,16612,-1524,-2028,nan,0.000000
2,5,6,1,14485545,16897321,1441192547928745486,1361426883.969107,14744,-3036,-1348,nan,0.000000
2,5,6,1,14485545,16897321,1441192547928748107,1361426883.969107,15264,-3732,-1032,nan,0.000000
2,5,6,1,14485545,16897321,1441192547928750728,1361426883.969107,16960,-2560,-120,nan,0.000000
2,5,6,1,14485545,16897321,1441192547928753349,1361426883.969107,15260,-2704,-384,nan,0.000000
2,5,6,1,14485545,16897321,1441192547928755970,1361426883.969107,15008,-2108,296,nan,0.000000
2,5,7,1,14485545,16897353,1441192547928758591,1361426883.969870,15332,-2596,256,nan,0.000000
2,5,7,1,14485545,16897353,1441192547928761212,1361426883.969870,15976,-1340,528,nan,0.000000
2,5,7,1,14485545,16897353,1441192547928763833,1361426883.969870,15460,-976,564,nan,0.000000
2,5,7,1,14485545,16897353,1441192547928766454,1361426883.969870,15648,-1308,672,nan,0.000000
2,5,7,1,14485545,16897353,1441192547928769075,1361426883.969870,16228,-596,1188,nan,0.000000
1,5,9,0,14566859,17059828,-5405554375734522876,1361426888.927513,15140,-1064,-900,nan,0.000000
1,5,9,0,14566859,17059828,-5405554375734520255,1361426888.927513,15684,-1252,-1008,nan,0.000000
2,5,10,0,14566859,17059860,-5405554375734517634,1361426888.929118,16624,-512,-136,nan,0.000000
2,5,10,0,14566859,17059860,-5405554375734515013,1361426888.929118,16364,-440,492,nan,0.000000
2,5,10,0,14566859,17059860,-5405554375734512392,1361426888.929118,15852,576,632,nan,0.000000
2,5,10,0,14566859,17059860,-5405554375734509771,1361426888.929118,15944,580,932,nan,0.000000
2,5,10,0,14566859,17059860,-5405554375734507150,1361426888.929118,16224,940,1288,nan,0.000000
2,5,11,0,14566859,17059892,-5405554375734504529,1361426888.930452,16904,436,1120,nan,0.000000
2,5,11,0,14566859,17059892,-5405554375734501908,1361426888.930452,17320,-2676,1392,nan,0.000000
2,5,11,0,14566859,17059892,-5405554375734499287,1361426888.930452,15260,-1868,-736,nan,0.000000
2,5,11,0,14566859,17059892,-5405554375734496666,1361426888.930452,14908,-3272,632,nan,0.000000
2,5,11,0,14566859,17059892,-5405554375734494045,1361426888.930452,16348,-3840,148,nan,0.000000
2,5,12,0,14566859,17059924,-5405554375734491424,1361426888.931364,15780,-3972,-40,nan,0.000000
2,5,12,0,14566859,17059924,-5405554375734488803,1361426888.931364,15644,-4228,-140,nan,0.000000
2,5,12,0,14566859,17059924,-5405554375734486182,1361426888.931364,15604,-3868,132,nan,0.000000
2,5,12,0,14566859,17059924,-5405554375734483561,1361426888.931364,15412,-3984,52,nan,0.000000
2,5,12,0,14566859,17059924,-5405554375734480940,1361426888.931364,15976,-4472,208,nan,0.000000
2,5,13,0,14566859,17059956,-5405554375734478319,1361426888.932079,15032,-4320,20,nan,0.000000
2,5,13,0,14566859,17059956,-5405554375734475698,1361426888.932079,15580,-3872,788,nan,0.000000
2,5,13,0,14566859,17059956,-5405554375734473077,1361426888.932079,15480,-2908,1028,nan,0.000000
2,5,13,0,14566859,17059956,-5405554375734470456,1361426888.932079,15284,-2792,1888,nan,0.000000
2,5,13,0,14566859,17059956,-5405554375734467835,1361426888.932079,15264,-2740,2228,nan,0.000000
2,5,14,0,14566859,17059988,-5405554375734465214,1361426888.933016,15460,-2636,2384,nan,0.000000
2,5,14,0,14566859,17059988,-5405554375734462593,1361426888.933016,16044,-2376,2000,nan,0.000000
2,5,14,0,14566859,17059988,-5405554375734459972,1361426888.933016,16812,-2412,1628,nan,0.000000
2,5,14,0,14566859,17059988,-5405554375734457351,1361426888.933016,15424,-2040,2180,nan,0.000000
2,5,14,0,14566859,17059988,-5405554375734454730,1361426888.933016,16228,-2196,1272,nan,0.000000
2,5,15,0,14566859,17060020,-5405554375734452109,1361426888.933676,15720,-2596,864,nan,0.000000
2,5,15,0,14566859,17060020,-5405554375734449488,1361426888.933676,15540,-2268,796,nan,0.000000
2,5,15,0,14566859,17060020,-5405554375734446867,1361426888.933676,15348,-2228,-100,nan,0.000000
2,5,15,0,14566859,17060020,-5405554375734444246,1361426888.933676,16724,-1372,-388,nan,0.000000
2,5,15,0,14566859,17060020,-5405554375734441625,1361426888.933676,16808,-1268,-80,nan,0.000000
1,5,0,0,14648172,17060052,2018497704291491843,1361426888.935057,16096,-352,20,nan,0.000000
1,5,0,15,14648172,17060052,2018497704291494464,1361426888.935057,16312,120,596,nan,0.000000
2,5,1,15,14648172,17060084,2018497704291497085,1361426888.935782,16112,108,1028,nan,0.000000
2,5,1,15,14648172,17060084,2018497704291499706,1361426888.935782,16136,356,1200,nan,0.000000
2,5,1,15,14648172,17060084,2018497704291502327,1361426888.935782,15976,748,1736,nan,0.000000
2,5,1,15,14648172,17060084,2018497704291504948,1361426888.935782,15604,580,1664,nan,0.000000
2,5,1,15,14648172,17060084,2018497704291507569,1361426888.935782,17232,424,1832,nan,0.000000
2,5,2,15,14648172,17060116,2018497704291510190,1361426888.937004,17872,-844,1300,nan,0.000000
2,5,2,15,14648172,17060116,2018497704291512811,1361426888.937004,16268,-540,32,nan,0.000000
2,5,2,15,14648172,17060116,2018497704291515432,1361426888.937004,14824,-1624,-428,nan,0.000000
2,5,2,15,14648172,17060116,2018497704291518053,1361426888.937004,15084,-4204,-340,nan,0.000000
2,5,2,15,14648172,17060116,2018497704291520674,1361426888.937004,17256,-1608,868,nan,0.000000
2,5,3,15,14648172,17060148,2018497704291523295,1361426888.939175,16376,-2160,164,nan,0.000000
2,5,3,15,14648172,17060148,2018497704291525916,1361426888.939175,14516,-3244,880,nan,0.000000
2,5,3,15,14648172,17060148,2018497704291528537,1361426888.939175,15248,-2472,1240,nan,0.000000
2,5,3,15,14648172,17060148,2018497704291531158,1361426888.939175,15652,-2320,1136,nan,0.000000
2,5,3,15,14648172,17060148,2018497704291533779,1361426888.939175,15732,-1444,1668,nan,0.000000
2,5,4,15,14648172,17060180,2018497704291536400,1361426888.939951,15380,-1844,1912,nan,0.000000
2,5,4,15,14648172,17060180,2018497704291539021,1361426888.939951,15660,-1992,2268,nan,0.000000
2,5,4,15,14648172,17060180,2018497704291541642,1361426888.939951,16928,-872,3004,nan,0.000000
2,5,4,15,14648172,17060180,2018497704291544263,1361426888.939951,19496,-3568,-496,nan,0.000000
2,5,4,15,14648172,17060180,2018497704291546884,1361426888.939951,15308,-1576,204,nan,0.000000
2,5,5,15,14648172,17060212,2018497704291549505,1361426888.940478,14116,-2836,-3108,nan,0.000000
2,5,5,15,14648172,17060212,2018497704291552126,1361426888.940478,16504,-3376,-768,nan,0.000000
2,5,5,15,14648172,17060212,2018497704291554747,1361426888.940478,15992,-1428,-324,nan,0.000000
2,5,5,15,14648172,17060212,2018497704291557368,1361426888.940478,15236,-1196,-668,nan,0.000000
2,5,5,15,14648172,17060212,2018497704291559989,1361426888.940478,16088,-760,-356,nan,0.000000
2,5,6,15,14648172,17060243,2018497704291562610,1361426891.409299,16316,-440,56,nan,0.000000
2,5,6,15,14648172,17060243,2018497704291565231,1361426891.409299,16324,-264,548,nan,0.000000
2,5,6,15,14648172,17060243,2018497704291567852,1361426891.409299,15828,452,644,nan,0.000000
2,5,6,15,14648172,17060243,2018497704291570473,1361426891.409299,15968,112,1136,nan,0.000000
2,5,6,15,14648172,17060243,2018497704291573094,1361426891.409299,16188,432,1380,nan,0.000000
1,5,7,0,14729485,17141146,2594910108416686080,1361426891.410238,16436,-1716,248,nan,0.000000
1,5,7,1,14729485,17141146,2594910108416688701,1361426891.410238,16232,-3316,-972,nan,0.000000
2,5,8,1,14729485,17141178,2594910108416691322,1361426891.410988,15428,-3096,-800,nan,0.000000
2,5,8,1,14729485,17141178,2594910108416693943,1361426891.410988,16028,-2640,-184,nan,0.000000
2,5,8,1,14729485,17141178,2594910108416696564,1361426891.410988,16620,-2416,324,nan,0.000000
2,5,8,1,14729485,17141178,2594910108416699185,1361426891.410988,15004,-2160,468,nan,0.000000
2,5,8,1,14729485,17141178,2594910108416701806,1361426891.410988,15500,-2428,820,nan,0.000000
2,5,9,1,14729485,17141210,2594910108416704427,1361426891.411694,15496,-1612,772,nan,0.000000
2,5,9,1,14729485,17141210,2594910108416707048,1361426891.411694,15804,-1548,868,nan,0.000000
2,5,9,1,14729485,17141210,2594910108416709669,1361426891.411694,15836,-1352,1308,nan,0.000000
2,5,9,1,14729485,17141210,2594910108416712290,1361426891.411694,15680,-1376,1348,nan,0.000000
2,5,9,1,14729485,17141210,2594910108416714911,1361426891.411694,15940,-1208,2004,nan,0.000000
2,5,10,1,14729485,17141242,2594910108416717532,1361426891.412948,16416,-2024,1696,nan,0.000000
2,5,10,1,14729485,17141242,2594910108416720153,1361426891.412948,19756,-2576,-940,nan,0.000000
2,5,10,1,14729485,17141242,2594910108416722774,1361426891.412948,14668,392,-732,nan,0.000000
2,5,10,1,14729485,17141242,2594910108416725395,1361426891.412948,13996,148,-3020,nan,0.000000
2,5,10,1,14729485,17141242,2594910108416728016,1361426891.412948,16244,-1976,-3100,nan,0.000000
2,5,11,1,14729485,17141274,2594910108416730637,1361426891.413732,16480,-1260,-1128,nan,0.000000
2,5,11,1,14729485,17141274,2594910108416733258,1361426891.413732,15540,648,-2040,nan,0.000000
2,5,11,1,14729485,17141274,2594910108416735879,1361426891.413732,15780,-1048,-2848,nan,0.000000
2,5,11,1,14729485,17141274,2594910108416738500,1361426891.413732,16604,-1188,-2528,nan,0.000000
2,5,11,1,14729485,17141274,2594910108416741121,1361426891.413732,15880,172,-2212,nan,0.000000
2,5,12,1,14729485,17141306,2594910108416743742,1361426891.414960,16396,-524,-2388,nan,0.000000
2,5,12,1,14729485,17141306,2594910108416746363,1361426891.414960,16368,-432,-1968,nan,0.000000
2,5,12,1,14729485,17141306,2594910108416748984,1361426891.414960,16172,-972,-1580,nan,0.000000
2,5,12,1,14729485,17141306,2594910108416751605,1361426891.414960,16768,-400,-1576,nan,0.000000
2,5,12,1,14729485,17141306,2594910108416754226,1361426891.414960,15488,-332,-1124,nan,0.000000
2,5,13,1,14729485,17141338,2594910108416756847,1361426893.895212,16676,-220,-964,nan,0.000000
2,5,13,1,14729485,17141338,2594910108416759468,1361426893.895212,15532,-608,-304,nan,0.000000
2,5,13,1,14729485,17141338,2594910108416762089,1361426893.895212,15980,-916,408,nan,0.000000
2,5,13,1,14729485,17141338,2594910108416764710,1361426893.895212,16736,-596,148,nan,0.000000
2,5,13,1,14729485,17141338,2594910108416767331,1361426893.895212,15160,-800,252,nan,0.000000
1,5,14,0,14810799,17222589,-3387092858359235332,1361426893.895957,16328,-1280,436,nan,0.000000
1,5,14,0,14810799,17222589,-3387092858359232711,1361426893.895957,15824,-1444,328,nan,0.000000
2,5,15,0,14810799,17222620,-3387092858359230090,1361426893.896929,15372,-1992,24,nan,0.000000
2,5,15,0,14810799,17222620,-3387092858359227469,1361426893.896929,15660,-1204,732,nan,0.000000
2,5,15,0,14810799,17222620,-3387092858359224848,1361426893.896929,15636,-1268,840,nan,0.000000
2,5,15,0,14810799,17222620,-3387092858359222227,1361426893.896929,16012,-896,1580,nan,0.000000
2,5,15,0,14810799,17222620,-3387092858359219606,1361426893.896929,16268,1048,2216,nan,0.000000
2,5,0,0,14810799,17222653,-3387092858359216985,1361426893.897624,19548,-3812,-1988,nan,0.000000
2,5,0,0,14810799,17222653,-3387092858359214364,1361426893.897624,15852,-520,-944,nan,0.000000
2,5,0,0,14810799,17222653,-3387092858359211743,1361426893.897624,14532,-4044,-3500,nan,0.000000
2,5,0,0,14810799,17222653,-3387092858359209122,1361426893.897624,16624,-2308,-120,nan,0.000000
2,5,0,0,14810799,17222653,-3387092858359206501,1361426893.897624,15408,-140,-372,nan,0.000000
2,5,1,0,14810799,17222684,-3387092858359203880,1361426893.898919,15292,-1424,-524,nan,0.000000
2,5,1,0,14810799,17222684,-3387092858359201259,1361426893.898919,15792,-1464,-516,nan,0.000000
2,5,1,0,14810799,17222684,-3387092858359198638,1361426893.898919,16144,-432,68,nan,0.000000
2,5,1,0,14810799,17222684,-3387092858359196017,1361426893.898919,16228,-432,68,nan,0.000000
2,5,1,0,14810799,17222684,-3387092858359193396,1361426893.898919,15676,128,660,nan,0.000000
2,5,2,0,14810799,17222717,-3387092858359190775,1361426893.899344,16016,-60,668,nan,0.000000
2,5,2,0,14810799,17222717,-3387092858359188154,1361426893.899344,18024,-1636,276,nan,0.000000
2,5,2,0,14810799,17222717,-3387092858359185533,1361426893.899344,16508,-1312,-772,nan,0.000000
2,5,2,0,14810799,17222717,-3387092858359182912,1361426893.899344,16388,-1360,-660,nan,0.000000
2,5,2,0,14810799,17222717,-3387092858359180291,1361426893.899344,14884,-2992,-680,nan,0.000000
2,5,3,0,14810799,17222748,-3387092858359177670,1361426893.900921,15436,-3248,-496,nan,0.000000
2,5,3,0,14810799,17222748,-3387092858359175049,1361426893.900921,17132,-2120,352,nan,0.000000
2,5,3,0,14810799,17222748,-3387092858359172428,1361426893.900921,15560,-2164,132,nan,0.000000
2,5,3,0,14810799,17222748,-3387092858359169807,1361426893.900921,15024,-2184,648,nan,0.000000
2,5,3,0,14810799,17222748,-3387092858359167186,1361426893.900921,15460,-2052,864,nan,0.000000
2,5,4,0,14810799,17222780,-3387092858359164565,1361426896.373236,16068,-1660,1032,nan,0.000000
2,5,4,0,14810799,17222780,-3387092858359161944,1361426896.373236,15700,-840,1376,nan,0.000000
2,5,4,0,14810799,17222780,-3387092858359159323,1361426896.373236,15272,-1272,1840,nan,0.000000
2,5,4,0,14810799,17222780,-3387092858359156702,1361426896.373236,15936,-1408,1676,nan,0.000000
2,5,4,0,14810799,17222780,-3387092858359154081,1361426896.373236,17312,-1288,1664,nan,0.000000
1,5,5,0,14892111,17303780,6919139796409190404,1361426896.374583,16580,-1436,148,nan,0.000000
1,5,5,0,14892111,17303780,6919139796409193025,1361426896.374583,14228,-1944,-2712,nan,0.000000
2,5,6,0,14892111,17303811,6919139796409195646,1361426896.374987,15552,-2232,-2884,nan,0.000000
2,5,6,0,14892111,17303811,6919139796409198267,1361426896.374987,16576,-2476,-2000,nan,0.000000
2,5,6,0,14892111,17303811,6919139796409200888,1361426896.374987,15424,-792,-1584,nan,0.000000
2,5,6,0,14892111,17303811,6919139796409203509,1361426896.374987,15316,-900,-2200,nan,0.000000
2,5,6,0,14892111,17303811,6919139796409206130,1361426896.374987,16256,-720,-2164,nan,0.000000
2,5,7,0,14892111,17303843,6919139796409208751,1361426896.375670,16576,-812,-1668,nan,0.000000
2,5,7,0,14892111,17303843,6919139796409211372,1361426896.375670,16012,312,-1636,nan,0.000000
2,5,7,0,14892111,17303843,6919139796409213993,1361426896.375670,15892,412,-1336,nan,0.000000
2,5,7,0,14892111,17303843,6919139796409216614,1361426896.375670,16076,952,-940,nan,0.000000
2,5,7,0,14892111,17303843,6919139796409219235,1361426896.375670,16628,600,-748,nan,0.000000
2,5,8,0,14892111,17303875,6919139796409221856,1361426896.376435,17384,-76,-1028,nan,0.000000
2,5,8,0,14892111,17303875,6919139796409224477,1361426896.376435,15180,-2608,-1140,nan,0.000000
2,5,8,0,14892111,17303875,6919139796409227098,1361426896.376435,15264,-2636,-836,nan,0.000000
2,5,8,0,14892111,17303875,6919139796409229719,1361426896.376435,15728,-3832,428,nan,0.000000
2,5,8,0,14892111,17303875,6919139796409232340,1361426896.376435,15976,-4008,176,nan,0.000000
2,5,9,0,14892111,17303907,6919139796409234961,1361426896.377662,15764,-4520,-92,nan,0.000000
2,5,9,0,14892111,17303907,6919139796409237582,1361426896.377662,15500,-4348,-60,nan,0.000000
2,5,9,0,14892111,17303907,6919139796409240203,1361426896.377662,15460,-4276,380,nan,0.000000
2,5,9,0,14892111,17303907,6919139796409242824,1361426896.377662,15212,-4100,464,nan,0.000000
2,5,9,0,14892111,17303907,6919139796409245445,1361426896.377662,15560,-4204,928,nan,0.000000
2,5,10,0,14892111,17303939,6919139796409248066,1361426896.378561,15236,-3592,1548,nan,0.000000
2,5,10,0,14892111,17303939,6919139796409250687,1361426896.378561,15116,-3796,1996,nan,0.000000
2,5,10,0,14892111,17303939,6919139796409253308,1361426896.378561,15152,-3056,2520,nan,0.000000
2,5,10,0,14892111,17303939,6919139796409255929,1361426896.378561,15872,-2740,2612,nan,0.000000
2,5,10,0,14892111,17303939,6919139796409258550,1361426896.378561,16672,-2680,1960,nan,0.000000
1,5,12,0,14973422,17466410,-6051662568295159800,1361426901.336834,16088,20,1028,nan,0.000000
1,5,12,0,14973422,17466410,-6051662568295157179,1361426901.336834,16240,160,1292,nan,0.000000
2,5,13,0,14973422,17466442,-6051662568295154558,1361426901.337312,15992,-368,1356,nan,0.000000
2,5,13,0,14973422,17466442,-6051662568295151937,1361426901.337312,15788,220,1688,nan,0.000000
2,5,13,0,14973422,17466442,-6051662568295149316,1361426901.337312,16012,-372,2200,nan,0.000000
2,5,13,0,14973422,17466442,-6051662568295146695,1361426901.337312,16308,196,2076,nan,0.000000
2,5,13,0,14973422,17466442,-6051662568295144074,1361426901.337312,15988,176,2716,nan,0.000000
2,5,14,0,14973422,17466473,-6051662568295141453,1361426901.338703,17688,-244,2032,nan,0.000000
2,5,14,0,14973422,17466473,-6051662568295138832,1361426901.338703,17024,-1096,488,nan,0.000000
2,5,14,0,14973422,17466473,-6051662568295136211,1361426901.338703,15232,-4036,-564,nan,0.000000
2,5,14,0,14973422,17466473,-6051662568295133590,1361426901.338703,15028,-2736,124,nan,0.000000
2,5,14,0,14973422,17466473,-6051662568295130969,1361426901.338703,17004,-2148,476,nan,0.000000
2,5,15,0,14973422,17466506,-6051662568295128348,1361426901.339289,16060,-3144,288,nan,0.000000
2,5,15,0,14973422,17466506,-6051662568295125727,1361426901.339289,14780,-3160,652,nan,0.000000
2,5,15,0,14973422,17466506,-6051662568295123106,1361426901.339289,15296,-2696,908,nan,0.000000
2,5,15,0,14973422,17466506,-6051662568295120485,1361426901.339289,15752,-1936,1040,nan,0.000000
2,5,15,0,14973422,17466506,-6051662568295117864,1361426901.339289,15468,-2172,1216,nan,0.000000
2,5,0,0,14973422,17466537,-6051662568295115243,1361426901.340678,15452,-1700,1236,nan,0.000000
2,5,0,0,14973422,17466537,-6051662568295112622,1361426901.340678,15808,-1084,1508,nan,0.000000
2,5,0,0,14973422,17466537,-6051662568295110001,1361426901.340678,16568,-520,2556,nan,0.000000
2,5,0,0,14973422,17466537,-6051662568295107380,1361426901.340678,17532,-1436,1564,nan,0.000000
2,5,0,0,14973422,17466537,-6051662568295104759,1361426901.340678,17820,-2296,160,nan,0.000000
2,5,1,0,14973422,17466570,-6051662568295102138,1361426901.341747,15688,-1648,-252,nan,0.000000
2,5,1,0,14973422,17466570,-6051662568295099517,1361426901.341747,13652,-2804,-3008,nan,0.000000
2,5,1,0,14973422,17466570,-6051662568295096896,1361426901.341747,16712,-3260,-972,nan,0.000000
2,5,1,0,14973422,17466570,-6051662568295094275,1361426901.341747,15860,-1564,-192,nan,0.000000
2,5,1,0,14973422,17466570,-6051662568295091654,1361426901.341747,15340,-564,-508,nan,0.000000
2,5,2,0,14973422,17466601,-6051662568295089033,1361426901.342677,15828,-660,-68,nan,0.000000
2,5,2,0,14973422,17466601,-6051662568295086412,1361426901.342677,16232,-448,244,nan,0.000000
2,5,2,0,14973422,17466601,-6051662568295083791,1361426901.342677,16260,-592,504,nan,0.000000
2,5,2,0,14973422,17466601,-6051662568295081170,1361426901.342677,15692,128,732,nan,0.000000
2,5,2,0,14973422,17466601,-6051662568295078549,1361426901.342677,16080,24,1004,nan,0.000000
1,5,3,0,15054732,17466634,-864619667040256769,1361426901.343048,17020,-960,300,nan,0.000000
1,5,3,15,15054732,17466634,-864619667040254148,1361426901.343048,16952,-2036,208,nan,0.000000
2,5,4,15,15054732,17466665,-864619667040251527,1361426901.344758,15200,-2052,-92,nan,0.000000
2,5,4,15,15054732,17466665,-864619667040248906,1361426901.344758,14716,-3460,136,nan,0.000000
2,5,4,15,15054732,17466665,-864619667040246285,1361426901.344758,16936,-1388,1272,nan,0.000000
2,5,4,15,15054732,17466665,-864619667040243664,1361426901.344758,16164,-2172,956,nan,0.000000
2,5,4,15,15054732,17466665,-864619667040241043,1361426901.344758,15176,-1744,1380,nan,0.000000
2,5,5,15,15054732,17466698,-864619667040238422,1361426901.345642,15332,-1748,1144,nan,0.000000
2,5,5,15,15054732,17466698,-864619667040235801,1361426901.345642,16012,-2372,932,nan,0.000000
2,5,5,15,15054732,17466698,-864619667040233180,1361426901.345642,16060,-1812,1524,nan,0.000000
2,5,5,15,15054732,17466698,-864619667040230559,1361426901.345642,15812,-1888,1908,nan,0.000000
2,5,5,15,15054732,17466698,-864619667040227938,1361426901.345642,15276,-1740,1184,nan,0.000000
2,5,6,15,15054732,17466729,-864619667040225317,1361426901.346735,15484,-2428,2000,nan,0.000000
2,5,6,15,15054732,17466729,-864619667040222696,1361426901.346735,15656,-2876,2116,nan,0.000000
2,5,6,15,15054732,17466729,-864619667040220075,1361426901.346735,16632,-2432,1872,nan,0.000000
2,5,6,15,15054732,17466729,-864619667040217454,1361426901.346735,16180,-4072,644,nan,0.000000
2,5,6,15,15054732,17466729,-864619667040214833,1361426901.346735,16500,-1864,-68,nan,0.000000
2,5,7,15,15054732,17466762,-864619667040212212,1361426901.347427,15048,348,68,nan,0.000000
2,5,7,15,15054732,17466762,-864619667040209591,1361426901.347427,16832,116,-384,nan,0.000000
2,5,7,15,15054732,17466762,-864619667040206970,1361426901.347427,16480,44,-392,nan,0.000000
2,5,7,15,15054732,17466762,-864619667040204349,1361426901.347427,15872,2264,316,nan,0.000000
2,5,7,15,15054732,17466762,-864619667040201728,1361426901.347427,16052,1388,-620,nan,0.000000
2,5,8,15,15054732,17466793,-864619667040199107,1361426901.348730,16632,-948,-1436,nan,0.000000
2,5,8,15,15054732,17466793,-864619667040196486,1361426901.348730,16604,80,-1060,nan,0.000000
2,5,8,15,15054732,17466793,-864619667040193865,1361426901.348730,15500,1452,-2660,nan,0.000000
2,5,8,15,15054732,17466793,-864619667040191244,1361426901.348730,16100,-852,-2184,nan,0.000000
2,5,8,15,15054732,17466793,-864619667040188623,1361426901.348730,17220,-2412,-1296,nan,0.000000
2,5,9,15,15054732,17466825,-864619667040186002,1361426903.816922,15632,-124,-1108,nan,0.000000
2,5,9,15,15054732,17466825,-864619667040183381,1361426903.816922,15316,-1500,-1292,nan,0.000000
2,5,9,15,15054732,17466825,-864619667040180760,1361426903.816922,16348,-1084,28,nan,0.000000
2,5,9,15,15054732,17466825,-864619667040178139,1361426903.816922,17164,-884,224,nan,0.000000
2,5,9,15,15054732,17466825,-864619667040175518,1361426903.816922,15800,-1536,160,nan,0.000000
1,5,10,0,15136041,17547742,-794281724556366597,1361426903.818746,15944,-2492,284,nan,0.000000
1,5,10,1,15136041,17547742,-794281724556363976,1361426903.818746,15432,-1876,24,nan,0.000000
2,5,11,1,15136041,17547774,-794281724556361355,1361426903.819708,15364,-1476,1008,nan,0.000000
2,5,11,1,15136041,17547774,-794281724556358734,1361426903.819708,15488,-1480,1008,nan,0.000000
2,5,11,1,15136041,17547774,-794281724556356113,1361426903.819708,15924,-852,1068,nan,0.000000
2,5,11,1,15136041,17547774,-794281724556353492,1361426903.819708,15980,-756,2036,nan,0.000000
2,5,11,1,15136041,17547774,-794281724556350871,1361426903.819708,17488,-560,1632,nan,0.000000
2,5,12,1,15136041,17547806,-794281724556348250,1361426903.820706,18016,-3536,-716,nan,0.000000
2,5,12,1,15136041,17547806,-794281724556345629,1361426903.820706,16564,-1444,216,nan,0.000000
2,5,12,1,15136041,17547806,-794281724556343008,1361426903.820706,13544,-3432,-2952,nan,0.000000
2,5,12,1,15136041,17547806,-794281724556340387,1361426903.820706,16596,-3488,-456,nan,0.000000
2,5,12,1,15136041,17547806,-794281724556337766,1361426903.820706,15948,-1876,-204,nan,0.000000
2,5,13,1,15136041,17547838,-794281724556335145,1361426903.821503,14956,-1052,-244,nan,0.000000
2,5,13,1,15136041,17547838,-794281724556332524,1361426903.821503,16160,-1136,24,nan,0.000000
2,5,13,1,15136041,17547838,-794281724556329903,1361426903.821503,16180,-584,668,nan,0.000000
2,5,13,1,15136041,17547838,-794281724556327282,1361426903.821503,16176,-336,992,nan,0.000000
2,5,13,1,15136041,17547838,-794281724556324661,1361426903.821503,15752,-100,1084,nan,0.000000
2,5,14,1,15136041,17547870,-794281724556322040,1361426903.822676,15920,192,1312,nan,0.000000
2,5,14,1,15136041,17547870,-794281724556319419,1361426903.822676,17616,-748,856,nan,0.000000
2,5,14,1,15136041,17547870,-794281724556316798,1361426903.822676,16828,-1176,624,nan,0.000000
2,5,14,1,15136041,17547870,-794281724556314177,1361426903.822676,16896,-3056,-524,nan,0.000000
2,5,14,1,15136041,17547870,-794281724556311556,1361426903.822676,14748,-3488,-496,nan,0.000000
2,5,15,1,15136041,17547902,-794281724556308935,1361426903.823445,14892,-4144,-136,nan,0.000000
2,5,15,1,15136041,17547902,-794281724556306314,1361426903.823445,16612,-3028,604,nan,0.000000
2,5,15,1,15136041,17547902,-794281724556303693,1361426903.823445,15864,-3272,428,nan,0.000000
2,5,15,1,15136041,17547902,-794281724556301072,1361426903.823445,14732,-3196,836,nan,0.000000
2,5,15,1,15136041,17547902,-794281724556298451,1361426903.823445,15416,-2856,688,nan,0.000000
2,5,0,1,15136041,17547934,-794281724556295830,1361426906.298984,15828,-2300,1068,nan,0.000000
2,5,0,1,15136041,17547934,-794281724556293209,1361426906.298984,15660,-2024,1184,nan,0.000000
2,5,0,1,15136041,17547934,-794281724556290588,1361426906.298984,15416,-1964,1920,nan,0.000000
2,5,0,1,15136041,17547934,-794281724556287967,1361426906.298984,15628,-1892,1904,nan,0.000000
2,5,0,1,15136041,17547934,-794281724556285346,1361426906.298984,16020,-1472,2244,nan,0.000000
1,5,1,0,15217350,17629035,-6916375673561076732,1361426906.300109,17516,-2980,-88,nan,0.000000
1,5,1,0,15217350,17629035,-6916375673561074111,1361426906.300109,16192,-1476,400,nan,0.000000
2,5,2,0,15217350,17629067,-6916375673561071490,1361426906.300682,14864,-2468,-2216,nan,0.000000
2,5,2,0,15217350,17629067,-6916375673561068869,1361426906.300682,15792,-2720,-1720,nan,0.000000
2,5,2,0,15217350,17629067,-6916375673561066248,1361426906.300682,16176,-2732,-1276,nan,0.000000
2,5,2,0,15217350,17629067,-6916375673561063627,1361426906.300682,15648,-840,-764,nan,0.000000
2,5,2,0,15217350,17629067,-6916375673561061006,1361426906.300682,15580,-1044,-1636,nan,0.000000
2,5,3,0,15217350,17629099,-6916375673561058385,1361426906.301751,15992,-352,-1064,nan,0.000000
2,5,3,0,15217350,17629099,-6916375673561055764,1361426906.301751,16160,116,-676,nan,0.000000
2,5,3,0,15217350,17629099,-6916375673561053143,1361426906.301751,16176,188,-828,nan,0.000000
2,5,3,0,15217350,17629099,-6916375673561050522,1361426906.301751,15920,688,-512,nan,0.000000
2,5,3,0,15217350,17629099,-6916375673561047901,1361426906.301751,16224,1244,-528,nan,0.000000
2,5,4,0,15217350,17629131,-6916375673561045280,1361426906.302844,17016,1360,-464,nan,0.000000
2,5,4,0,15217350,17629131,-6916375673561042659,1361426906.302844,18432,-1376,-248,nan,0.000000
2,5,4,0,15217350,17629131,-6916375673561040038,1361426906.302844,14828,-1420,-1336,nan,0.000000
2,5,4,0,15217350,17629131,-6916375673561037417,1361426906.302844,14664,-2360,308,nan,0.000000
2,5,4,0,15217350,17629131,-6916375673561034796,1361426906.302844,16304,-3616,-792,nan,0.000000
2,5,5,0,15217350,17629163,-6916375673561032175,1361426906.303377,16308,-3196,-688,nan,0.000000
2,5,5,0,15217350,17629163,-6916375673561029554,1361426906.303377,15696,-3428,-896,nan,0.000000
2,5,5,0,15217350,17629163,-6916375673561026933,1361426906.303377,15824,-3432,-488,nan,0.000000
2,5,5,0,15217350,17629163,-6916375673561024312,1361426906.303377,15460,-4484,-1388,nan,0.000000
