type,ID,seq,packetLoss,nodeTimestamp,bsTimestamp,syncTimestamp,systemTime,accelX,accelY,accelZ,cannula,voltage
1,5,15,0,10835599,16710817,6921497076736260109,1361355103.247310,-15136,-5484,3612,nan,0.000000
1,5,15,0,10835599,16710817,6921497076736262730,1361355103.247310,-15052,-5528,3704,nan,0.000000
2,5,0,0,10835599,16710849,6921497076736265351,1361355103.247525,-15048,-5480,3616,nan,0.000000
2,5,0,0,10835599,16710849,6921497076736267972,1361355103.247525,-15000,-5516,3856,nan,0.000000
2,5,0,0,10835599,16710849,6921497076736270593,1361355103.247525,-14936,-5628,3808,nan,0.000000
2,5,0,0,10835599,16710849,6921497076736273214,1361355103.247525,-14892,-5660,3736,nan,0.000000
2,5,0,0,10835599,16710849,6921497076736275835,1361355103.247525,-14940,-5780,3812,nan,0.000000
2,5,1,0,10835599,16710880,6921497076736278456,1361355103.247811,-15028,-5748,3736,nan,0.000000
2,5,1,0,10835599,16710880,6921497076736281077,1361355103.247811,-15056,-5736,3652,nan,0.000000
2,5,1,0,10835599,16710880,6921497076736283698,1361355103.247811,-15028,-5828,3636,nan,0.000000
2,5,1,0,10835599,16710880,6921497076736286319,1361355103.247811,-15032,-5688,3764,nan,0.000000
2,5,1,0,10835599,16710880,6921497076736288940,1361355103.247811,-14984,-5668,3576,nan,0.000000
2,5,2,0,10835599,16710912,6921497076736291561,1361355103.248035,-15040,-5732,3712,nan,0.000000
2,5,2,0,10835599,16710912,6921497076736294182,1361355103.248035,-14976,-5780,3680,nan,0.000000
2,5,2,0,10835599,16710912,6921497076736296803,1361355103.248035,-14948,-5736,3748,nan,0.000000
2,5,2,0,10835599,16710912,6921497076736299424,1361355103.248035,-15040,-5724,3784,nan,0.000000
2,5,2,0,10835599,16710912,6921497076736302045,1361355103.248035,-14924,-5752,3744,nan,0.000000
2,5,3,0,10835599,16710944,6921497076736304666,1361355103.248297,-14984,-5724,3668,nan,0.000000
2,5,3,0,10835599,16710944,6921497076736307287,1361355103.248297,-14996,-5812,3708,nan,0.000000
2,5,3,0,10835599,16710944,6921497076736309908,1361355103.248297,-14992,-5684,3620,nan,0.000000
2,5,3,0,10835599,16710944,6921497076736312529,1361355103.248297,-14988,-5796,3612,nan,0.000000
2,5,3,0,10835599,16710944,6921497076736315150,1361355103.248297,-14992,-5812,3660,nan,0.000000
2,5,4,0,10835599,16710975,6921497076736317771,1361355103.248564,-14908,-5796,3616,nan,0.000000
2,5,4,0,10835599,16710975,6921497076736320392,1361355103.248564,-14956,-5788,3636,nan,0.000000
2,5,4,0,10835599,16710975,6921497076736323013,1361355103.248564,-14928,-5900,3712,nan,0.000000
2,5,4,0,10835599,16710975,6921497076736325634,1361355103.248564,-14968,-5880,3696,nan,0.000000
2,5,4,0,10835599,16710975,6921497076736328255,1361355103.248564,-14936,-5872,3732,nan,0.000000
2,5,5,0,10835599,16711007,6921497076736330876,1361355103.248802,-15036,-5872,3780,nan,0.000000
2,5,5,0,10835599,16711007,6921497076736333497,1361355103.248802,-14924,-5720,3872,nan,0.000000
2,5,5,0,10835599,16711007,6921497076736336118,1361355103.248802,-14980,-5748,3860,nan,0.000000
2,5,5,0,10835599,16711007,6921497076736338739,1361355103.248802,-15012,-5804,3928,nan,0.000000
2,5,5,0,10835599,16711007,6921497076736341360,1361355103.248802,-14928,-5724,3808,nan,0.000000
1,5,6,0,10916888,16711039,2310250855578059790,1361355103.249042,-14948,-5708,3872,nan,0.000000
1,5,6,15,10916888,16711039,2310250855578062411,1361355103.249042,-14864,-5688,3976,nan,0.000000
2,5,7,15,10916888,16711070,2310250855578065032,1361355103.249179,-15000,-5724,3884,nan,0.000000
2,5,7,15,10916888,16711070,2310250855578067653,1361355103.249179,-14972,-5776,3856,nan,0.000000
2,5,7,15,10916888,16711070,2310250855578070274,1361355103.249179,-14832,-5640,3936,nan,0.000000
2,5,7,15,10916888,16711070,2310250855578072895,1361355103.249179,-14920,-5748,3864,nan,0.000000
2,5,7,15,10916888,16711070,2310250855578075516,1361355103.249179,-14888,-5816,3892,nan,0.000000
2,5,8,15,10916888,16711102,2310250855578078137,1361355103.249416,-14880,-5832,3828,nan,0.000000
2,5,8,15,10916888,16711102,2310250855578080758,1361355103.249416,-14928,-6040,3996,nan,0.000000
2,5,8,15,10916888,16711102,2310250855578083379,1361355103.249416,-14688,-5808,3752,nan,0.000000
2,5,8,15,10916888,16711102,2310250855578086000,1361355103.249416,-14728,-5972,3760,nan,0.000000
2,5,8,15,10916888,16711102,2310250855578088621,1361355103.249416,-15000,-6044,3648,nan,0.000000
2,5,9,15,10916888,16711134,2310250855578091242,1361355103.249699,-14972,-5776,3828,nan,0.000000
2,5,9,15,10916888,16711134,2310250855578093863,1361355103.249699,-15056,-6060,3760,nan,0.000000
2,5,9,15,10916888,16711134,2310250855578096484,1361355103.249699,-15100,-6256,3424,nan,0.000000
2,5,9,15,10916888,16711134,2310250855578099105,1361355103.249699,-14960,-6060,3476,nan,0.000000
2,5,9,15,10916888,16711134,2310250855578101726,1361355103.249699,-14920,-5572,3960,nan,0.000000
2,5,10,15,10916888,16711165,2310250855578104347,1361355103.249954,-14884,-5476,4300,nan,0.000000
2,5,10,15,10916888,16711165,2310250855578106968,1361355103.249954,-14668,-5652,4452,nan,0.000000
2,5,10,15,10916888,16711165,2310250855578109589,1361355103.249954,-14332,-6292,4680,nan,0.000000
2,5,10,15,10916888,16711165,2310250855578112210,1361355103.249954,-14524,-6464,4888,nan,0.000000
2,5,10,15,10916888,16711165,2310250855578114831,1361355103.249954,-14812,-5864,4368,nan,0.000000
2,5,11,15,10916888,16711197,2310250855578117452,1361355103.250189,-14304,-6120,4300,nan,0.000000
2,5,11,15,10916888,16711197,2310250855578120073,1361355103.250189,-14544,-6676,4460,nan,0.000000
2,5,11,15,10916888,16711197,2310250855578122694,1361355103.250189,-14512,-6344,3956,nan,0.000000
2,5,11,15,10916888,16711197,2310250855578125315,1361355103.250189,-14780,-6508,4044,nan,0.000000
2,5,11,15,10916888,16711197,2310250855578127936,1361355103.250189,-14728,-6740,3772,nan,0.000000
2,5,12,15,10916888,16711229,2310250855578130557,1361355103.250483,-14640,-6484,3532,nan,0.000000
2,5,12,15,10916888,16711229,2310250855578133178,1361355103.250483,-14764,-6164,3724,nan,0.000000
2,5,12,15,10916888,16711229,2310250855578135799,1361355103.250483,-14680,-6160,3652,nan,0.000000
2,5,12,15,10916888,16711229,2310250855578138420,1361355103.250483,-14812,-6516,3828,nan,0.000000
2,5,12,15,10916888,16711229,2310250855578141041,1361355103.250483,-14652,-6464,3828,nan,0.000000
1,5,13,0,10998176,16792110,-8354479780421776371,1361355103.250744,-14560,-6392,3900,nan,0.000000
1,5,13,1,10998176,16792110,-8354479780421773750,1361355103.250744,-14556,-6540,4168,nan,0.000000
2,5,14,1,10998176,16792142,-8354479780421771129,1361355103.250859,-14352,-6648,4244,nan,0.000000
2,5,14,1,10998176,16792142,-8354479780421768508,1361355103.250859,-14352,-6720,4396,nan,0.000000
2,5,14,1,10998176,16792142,-8354479780421765887,1361355103.250859,-14208,-6712,4428,nan,0.000000
2,5,14,1,10998176,16792142,-8354479780421763266,1361355103.250859,-14284,-6696,4564,nan,0.000000
2,5,14,1,10998176,16792142,-8354479780421760645,1361355103.250859,-14264,-6868,4536,nan,0.000000
2,5,15,1,10998176,16792174,-8354479780421758024,1361355103.251103,-14124,-6852,4556,nan,0.000000
2,5,15,1,10998176,16792174,-8354479780421755403,1361355103.251103,-14188,-7160,5008,nan,0.000000
2,5,15,1,10998176,16792174,-8354479780421752782,1361355103.251103,-14056,-6884,4652,nan,0.000000
2,5,15,1,10998176,16792174,-8354479780421750161,1361355103.251103,-14080,-6928,4792,nan,0.000000
2,5,15,1,10998176,16792174,-8354479780421747540,1361355103.251103,-14040,-6816,4720,nan,0.000000
2,5,0,1,10998176,16792205,-8354479780421744919,1361355103.251361,-14032,-6980,4828,nan,0.000000
2,5,0,1,10998176,16792205,-8354479780421742298,1361355103.251361,-14032,-6876,4844,nan,0.000000
2,5,0,1,10998176,16792205,-8354479780421739677,1361355103.251361,-14140,-7040,4968,nan,0.000000
2,5,0,1,10998176,16792205,-8354479780421737056,1361355103.251361,-14044,-6812,4872,nan,0.000000
2,5,0,1,10998176,16792205,-8354479780421734435,1361355103.251361,-14040,-6876,5028,nan,0.000000
2,5,1,1,10998176,16792237,-8354479780421731814,1361355103.251595,-14052,-6848,4968,nan,0.000000
2,5,1,1,10998176,16792237,-8354479780421729193,1361355103.251595,-13996,-6860,5056,nan,0.000000
2,5,1,1,10998176,16792237,-8354479780421726572,1361355103.251595,-14000,-6788,5120,nan,0.000000
2,5,1,1,10998176,16792237,-8354479780421723951,1361355103.251595,-14012,-6920,5256,nan,0.000000
2,5,1,1,10998176,16792237,-8354479780421721330,1361355103.251595,-13960,-7004,5224,nan,0.000000
2,5,2,1,10998176,16792269,-8354479780421718709,1361355103.251865,-13984,-6964,5172,nan,0.000000
2,5,2,1,10998176,16792269,-8354479780421716088,1361355103.251865,-13972,-6900,5048,nan,0.000000
2,5,2,1,10998176,16792269,-8354479780421713467,1361355103.251865,-14040,-7040,4920,nan,0.000000
2,5,2,1,10998176,16792269,-8354479780421710846,1361355103.251865,-14028,-7020,4884,nan,0.000000
2,5,2,1,10998176,16792269,-8354479780421708225,1361355103.251865,-14028,-7028,4816,nan,0.000000
2,5,3,1,10998176,16792300,-8354479780421705604,1361355103.252115,-14016,-7004,4852,nan,0.000000
2,5,3,1,10998176,16792300,-8354479780421702983,1361355103.252115,-14108,-7068,4848,nan,0.000000
2,5,3,1,10998176,16792300,-8354479780421700362,1361355103.252115,-14076,-6940,4924,nan,0.000000
2,5,3,1,10998176,16792300,-8354479780421697741,1361355103.252115,-14132,-6868,4916,nan,0.000000
2,5,3,1,10998176,16792300,-8354479780421695120,1361355103.252115,-14072,-6832,4800,nan,0.000000
1,5,4,0,11079463,16873402,-1147744020772359150,1361355103.252350,-14108,-6752,4752,nan,0.000000
1,5,4,0,11079463,16873402,-1147744020772356529,1361355103.252350,-14184,-6740,4616,nan,0.000000
2,5,5,0,11079463,16873434,-1147744020772353908,1361355103.252461,-14204,-6692,4672,nan,0.000000
2,5,5,0,11079463,16873434,-1147744020772351287,1361355103.252461,-14224,-6732,4792,nan,0.000000
2,5,5,0,11079463,16873434,-1147744020772348666,1361355103.252461,-14148,-6736,4844,nan,0.000000
2,5,5,0,11079463,16873434,-1147744020772346045,1361355103.252461,-14112,-6652,4876,nan,0.000000
2,5,5,0,11079463,16873434,-1147744020772343424,1361355103.252461,-14164,-6692,4880,nan,0.000000
2,5,6,0,11079463,16873466,-1147744020772340803,1361355103.252698,-14152,-6724,4920,nan,0.000000
2,5,6,0,11079463,16873466,-1147744020772338182,1361355103.252698,-14048,-6736,4900,nan,0.000000
2,5,6,0,11079463,16873466,-1147744020772335561,1361355103.252698,-14148,-6752,5036,nan,0.000000
2,5,6,0,11079463,16873466,-1147744020772332940,1361355103.252698,-14084,-6740,5080,nan,0.000000
2,5,6,0,11079463,16873466,-1147744020772330319,1361355103.252698,-14044,-6824,5048,nan,0.000000
2,5,7,0,11079463,16873497,-1147744020772327698,1361355103.252933,-14124,-6808,5100,nan,0.000000
2,5,7,0,11079463,16873497,-1147744020772325077,1361355103.252933,-14060,-6776,5040,nan,0.000000
2,5,7,0,11079463,16873497,-1147744020772322456,1361355103.252933,-14136,-6932,4956,nan,0.000000
2,5,7,0,11079463,16873497,-1147744020772319835,1361355103.252933,-14016,-6784,5040,nan,0.000000
2,5,7,0,11079463,16873497,-1147744020772317214,1361355103.252933,-14136,-6772,5016,nan,0.000000
2,5,8,0,11079463,16873529,-1147744020772314593,1361355103.253167,-14088,-6744,5028,nan,0.000000
2,5,8,0,11079463,16873529,-1147744020772311972,1361355103.253167,-14100,-6732,5016,nan,0.000000
2,5,8,0,11079463,16873529,-1147744020772309351,1361355103.253167,-14148,-6688,5044,nan,0.000000
2,5,8,0,11079463,16873529,-1147744020772306730,1361355103.253167,-14140,-6728,5056,nan,0.000000
2,5,8,0,11079463,16873529,-1147744020772304109,1361355103.253167,-14136,-6640,5052,nan,0.000000
2,5,9,0,11079463,16873561,-1147744020772301488,1361355103.253401,-14160,-6712,4920,nan,0.000000
2,5,9,0,11079463,16873561,-1147744020772298867,1361355103.253401,-14164,-6628,4824,nan,0.000000
2,5,9,0,11079463,16873561,-1147744020772296246,1361355103.253401,-14172,-6532,4900,nan,0.000000
2,5,9,0,11079463,16873561,-1147744020772293625,1361355103.253401,-14240,-6600,4948,nan,0.000000
2,5,9,0,11079463,16873561,-1147744020772291004,1361355103.253401,-14184,-6576,5004,nan,0.000000
2,5,10,0,11079463,16873592,-1147744020772288383,1361355103.253633,-14200,-6584,4980,nan,0.000000
2,5,10,0,11079463,16873592,-1147744020772285762,1361355103.253633,-14244,-6528,4956,nan,0.000000
2,5,10,0,11079463,16873592,-1147744020772283141,1361355103.253633,-14220,-6600,4976,nan,0.000000
2,5,10,0,11079463,16873592,-1147744020772280520,1361355103.253633,-14220,-6528,5024,nan,0.000000
2,5,10,0,11079463,16873592,-1147744020772277899,1361355103.253633,-14192,-6560,4952,nan,0.000000
1,5,11,0,11160751,16954693,6634788402934346771,1361355103.253897,-14200,-6588,5028,nan,0.000000
1,5,11,0,11160751,16954693,6634788402934349392,1361355103.253897,-14208,-6520,5004,nan,0.000000
2,5,12,0,11160751,16954725,6634788402934352013,1361355103.254012,-14172,-6488,4920,nan,0.000000
2,5,12,0,11160751,16954725,6634788402934354634,1361355103.254012,-14144,-6640,5008,nan,0.000000
2,5,12,0,11160751,16954725,6634788402934357255,1361355103.254012,-14172,-6548,5072,nan,0.000000
2,5,12,0,11160751,16954725,6634788402934359876,1361355103.254012,-14140,-6584,4932,nan,0.000000
2,5,12,0,11160751,16954725,6634788402934362497,1361355103.254012,-14108,-6668,5180,nan,0.000000
2,5,13,0,11160751,16954757,6634788402934365118,1361355103.254247,-14072,-6632,5004,nan,0.000000
2,5,13,0,11160751,16954757,6634788402934367739,1361355103.254247,-14136,-6748,5080,nan,0.000000
2,5,13,0,11160751,16954757,6634788402934370360,1361355103.254247,-14080,-6668,5028,nan,0.000000
2,5,13,0,11160751,16954757,6634788402934372981,1361355103.254247,-14104,-6708,4992,nan,0.000000
2,5,13,0,11160751,16954757,6634788402934375602,1361355103.254247,-14144,-6860,5148,nan,0.000000
2,5,14,0,11160751,16954788,6634788402934378223,1361355103.254491,-14080,-6640,5036,nan,0.000000
2,5,14,0,11160751,16954788,6634788402934380844,1361355103.254491,-14124,-6760,5124,nan,0.000000
2,5,14,0,11160751,16954788,6634788402934383465,1361355103.254491,-14008,-6648,5032,nan,0.000000
2,5,14,0,11160751,16954788,6634788402934386086,1361355103.254491,-14052,-6820,5268,nan,0.000000
2,5,14,0,11160751,16954788,6634788402934388707,1361355103.254491,-13992,-6684,5020,nan,0.000000
2,5,15,0,11160751,16954820,6634788402934391328,1361355103.254727,-14040,-6828,5232,nan,0.000000
2,5,15,0,11160751,16954820,6634788402934393949,1361355103.254727,-14016,-6812,5220,nan,0.000000
2,5,15,0,11160751,16954820,6634788402934396570,1361355103.254727,-13992,-6792,5160,nan,0.000000
2,5,15,0,11160751,16954820,6634788402934399191,1361355103.254727,-13956,-6868,5332,nan,0.000000
2,5,15,0,11160751,16954820,6634788402934401812,1361355103.254727,-13952,-7320,5748,nan,0.000000
2,5,0,0,11160751,16954852,6634788402934404433,1361355103.255031,-13616,-7448,5628,nan,0.000000
2,5,0,0,11160751,16954852,6634788402934407054,1361355103.255031,-13784,-6880,5740,nan,0.000000
2,5,0,0,11160751,16954852,6634788402934409675,1361355103.255031,-13644,-6708,5900,nan,0.000000
2,5,0,0,11160751,16954852,6634788402934412296,1361355103.255031,-14080,-6612,6400,nan,0.000000
2,5,0,0,11160751,16954852,6634788402934414917,1361355103.255031,-12976,-7428,6924,nan,0.000000
2,5,1,0,11160751,16954883,6634788402934417538,1361355103.255267,-12740,-7892,6512,nan,0.000000
2,5,1,0,11160751,16954883,6634788402934420159,1361355103.255267,-11848,-6136,5184,nan,0.000000
2,5,1,0,11160751,16954883,6634788402934422780,1361355103.255267,-14376,-7392,3052,nan,0.000000
2,5,1,0,11160751,16954883,6634788402934425401,1361355103.255267,-15632,-7360,3016,nan,0.000000
2,5,1,0,11160751,16954883,6634788402934428022,1361355103.255267,-13152,-7584,2680,nan,0.000000
1,5,2,0,11242038,17035984,4617325313587769369,1361355103.255501,-14960,-9176,2828,nan,0.000000
1,5,2,0,11242038,17035984,4617325313587771990,1361355103.255501,-13828,-8692,4284,nan,0.000000
2,5,3,0,11242038,17036016,4617325313587774611,1361355103.255613,-13432,-8288,2992,nan,0.000000
2,5,3,0,11242038,17036016,4617325313587777232,1361355103.255613,-13096,-9000,2796,nan,0.000000
2,5,3,0,11242038,17036016,4617325313587779853,1361355103.255613,-12784,-9096,2872,nan,0.000000
2,5,3,0,11242038,17036016,4617325313587782474,1361355103.255613,-14128,-8888,2752,nan,0.000000
2,5,3,0,11242038,17036016,4617325313587785095,1361355103.255613,-16592,-7432,5016,nan,0.000000
2,5,4,0,11242038,17036048,4617325313587787716,1361355103.255846,-15280,-6716,3684,nan,0.000000
2,5,4,0,11242038,17036048,4617325313587790337,1361355103.255846,-13404,-5100,4424,nan,0.000000
2,5,4,0,11242038,17036048,4617325313587792958,1361355103.255846,-15916,-4040,5556,nan,0.000000
2,5,4,0,11242038,17036048,4617325313587795579,1361355103.255846,-15600,-5600,5028,nan,0.000000
2,5,4,0,11242038,17036048,4617325313587798200,1361355103.255846,-12944,-5016,4656,nan,0.000000
2,5,5,0,11242038,17036079,4617325313587800821,1361355103.256111,-14832,-5732,5332,nan,0.000000
2,5,5,0,11242038,17036079,4617325313587803442,1361355103.256111,-14156,-6904,5488,nan,0.000000
2,5,5,0,11242038,17036079,4617325313587806063,1361355103.256111,-12032,-6448,4780,nan,0.000000
2,5,5,0,11242038,17036079,4617325313587808684,1361355103.256111,-13240,-6200,6280,nan,0.000000
2,5,5,0,11242038,17036079,4617325313587811305,1361355103.256111,-12680,-7360,5932,nan,0.000000
2,5,6,0,11242038,17036111,4617325313587813926,1361355103.256347,-12564,-8992,6232,nan,0.000000
2,5,6,0,11242038,17036111,4617325313587816547,1361355103.256347,-13256,-9696,8056,nan,0.000000
2,5,6,0,11242038,17036111,4617325313587819168,1361355103.256347,-15620,-9028,7064,nan,0.000000
2,5,6,0,11242038,17036111,4617325313587821789,1361355103.256347,-15876,-7760,5732,nan,0.000000
2,5,6,0,11242038,17036111,4617325313587824410,1361355103.256347,-10948,-5708,3788,nan,0.000000
2,5,7,0,11242038,17036143,4617325313587827031,1361355103.256581,-16192,-7884,5072,nan,0.000000
2,5,7,0,11242038,17036143,4617325313587829652,1361355103.256581,-13256,-4956,5260,nan,0.000000
2,5,7,0,11242038,17036143,4617325313587832273,1361355103.256581,-13812,-6536,3628,nan,0.000000
2,5,7,0,11242038,17036143,4617325313587834894,1361355103.256581,-12396,-9128,2852,nan,0.000000
2,5,7,0,11242038,17036143,4617325313587837515,1361355103.256581,-12884,-8588,3820,nan,0.000000
1,5,9,0,11323325,17605025,2313030350710669328,1361355116.077392,-17016,-8180,4704,nan,0.000000
1,5,9,0,11323325,17605025,2313030350710671949,1361355116.077392,-10784,-6996,2716,nan,0.000000
2,5,10,0,11323325,17605057,2313030350710674570,1361355116.079109,-12420,-6036,4296,nan,0.000000
2,5,10,0,11323325,17605057,2313030350710677191,1361355116.079109,-13476,-5464,6080,nan,0.000000
2,5,10,0,11323325,17605057,2313030350710679812,1361355116.079109,-11828,-6688,5116,nan,0.000000
2,5,10,0,11323325,17605057,2313030350710682433,1361355116.079109,-16912,-7440,8948,nan,0.000000
2,5,10,0,11323325,17605057,2313030350710685054,1361355116.079109,-15900,-14308,8260,nan,0.000000
2,5,11,0,11323325,17605089,2313030350710687675,1361355116.080440,-14708,-7752,3040,nan,0.000000
2,5,11,0,11323325,17605089,2313030350710690296,1361355116.080440,-14112,-5188,2336,nan,0.000000
2,5,11,0,11323325,17605089,2313030350710692917,1361355116.080440,-14956,-8276,2752,nan,0.000000
2,5,11,0,11323325,17605089,2313030350710695538,1361355116.080440,-12660,-2428,2640,nan,0.000000
2,5,11,0,11323325,17605089,2313030350710698159,1361355116.080440,-14776,-4760,1128,nan,0.000000
2,5,12,0,11323325,17605121,2313030350710700780,1361355116.081316,-12632,-10288,3252,nan,0.000000
2,5,12,0,11323325,17605121,2313030350710703401,1361355116.081316,-11608,-7348,1884,nan,0.000000
2,5,12,0,11323325,17605121,2313030350710706022,1361355116.081316,-16344,-7456,7096,nan,0.000000
2,5,12,0,11323325,17605121,2313030350710708643,1361355116.081316,-16604,-8860,6620,nan,0.000000
2,5,12,0,11323325,17605121,2313030350710711264,1361355116.081316,-18788,-6420,1896,nan,0.000000
2,5,13,0,11323325,17605153,2313030350710713885,1361355116.082017,-15372,2044,4012,nan,0.000000
2,5,13,0,11323325,17605153,2313030350710716506,1361355116.082017,-16936,-6192,1508,nan,0.000000
2,5,13,0,11323325,17605153,2313030350710719127,1361355116.082017,-12116,-8236,2020,nan,0.000000
2,5,13,0,11323325,17605153,2313030350710721748,1361355116.082017,-11688,-6464,2828,nan,0.000000
2,5,13,0,11323325,17605153,2313030350710724369,1361355116.082017,-12756,-6580,4324,nan,0.000000
2,5,14,0,11323325,17605185,2313030350710726990,1361355116.083078,-13180,-5844,5340,nan,0.000000
2,5,14,0,11323325,17605185,2313030350710729611,1361355116.083078,-13556,-5460,4276,nan,0.000000
2,5,14,0,11323325,17605185,2313030350710732232,1361355116.083078,-17496,-12480,8456,nan,0.000000
2,5,14,0,11323325,17605185,2313030350710734853,1361355116.083078,-14020,-13024,3672,nan,0.000000
2,5,14,0,11323325,17605185,2313030350710737474,1361355116.083078,-15636,-6772,4272,nan,0.000000
2,5,15,0,11323325,17605217,2313030350710740095,1361355116.084266,-11608,-6040,2148,nan,0.000000
2,5,15,0,11323325,17605217,2313030350710742716,1361355116.084266,-14328,-7780,3804,nan,0.000000
2,5,15,0,11323325,17605217,2313030350710745337,1361355116.084266,-14376,-3716,2844,nan,0.000000
2,5,15,0,11323325,17605217,2313030350710747958,1361355116.084266,-13352,-8476,2112,nan,0.000000
2,5,15,0,11323325,17605217,2313030350710750579,1361355116.084266,-11008,-8420,2436,nan,0.000000
1,5,0,0,11404613,17605249,-2589960245362531320,1361355116.085088,-19148,-10088,7508,nan,0.000000
1,5,0,15,11404613,17605249,-2589960245362528699,1361355116.085088,-17724,-7920,3936,nan,0.000000
2,5,1,15,11404613,17605281,-2589960245362526078,1361355116.085519,-15736,-2664,1800,nan,0.000000
2,5,1,15,11404613,17605281,-2589960245362523457,1361355116.085519,-14504,-492,3492,nan,0.000000
2,5,1,15,11404613,17605281,-2589960245362520836,1361355116.085519,-15568,-10068,3352,nan,0.000000
2,5,1,15,11404613,17605281,-2589960245362518215,1361355116.085519,-11680,-5884,2048,nan,0.000000
2,5,1,15,11404613,17605281,-2589960245362515594,1361355116.085519,-11992,-5688,4624,nan,0.000000
2,5,2,15,11404613,17605313,-2589960245362512973,1361355116.087073,-12884,-6476,5800,nan,0.000000
2,5,2,15,11404613,17605313,-2589960245362510352,1361355116.087073,-12820,-6616,5092,nan,0.000000
2,5,2,15,11404613,17605313,-2589960245362507731,1361355116.087073,-16348,-9332,7252,nan,0.000000
2,5,2,15,11404613,17605313,-2589960245362505110,1361355116.087073,-13044,-12760,6568,nan,0.000000
2,5,2,15,11404613,17605313,-2589960245362502489,1361355116.087073,-15876,-8908,3724,nan,0.000000
2,5,3,15,11404613,17605345,-2589960245362499868,1361355116.087803,-13436,-5808,2064,nan,0.000000
2,5,3,15,11404613,17605345,-2589960245362497247,1361355116.087803,-15684,-8632,-192,nan,0.000000
2,5,3,15,11404613,17605345,-2589960245362494626,1361355116.087803,-14168,-5180,2904,nan,0.000000
2,5,3,15,11404613,17605345,-2589960245362492005,1361355116.087803,-13544,-3620,-2232,nan,0.000000
2,5,3,15,11404613,17605345,-2589960245362489384,1361355116.087803,-13072,-7496,-836,nan,0.000000
2,5,4,15,11404613,17605377,-2589960245362486763,1361355116.089381,-14096,-7596,-1152,nan,0.000000
2,5,4,15,11404613,17605377,-2589960245362484142,1361355116.089381,-15676,-7312,1104,nan,0.000000
2,5,4,15,11404613,17605377,-2589960245362481521,1361355116.089381,-19100,-7792,4388,nan,0.000000
2,5,4,15,11404613,17605377,-2589960245362478900,1361355116.089381,-16768,-7344,-1184,nan,0.000000
2,5,4,15,11404613,17605377,-2589960245362476279,1361355116.089381,-16820,-128,3216,nan,0.000000
2,5,5,15,11404613,17605409,-2589960245362473658,1361355116.089998,-15548,-2616,1820,nan,0.000000
2,5,5,15,11404613,17605409,-2589960245362471037,1361355116.089998,-15344,-7484,1636,nan,0.000000
2,5,5,15,11404613,17605409,-2589960245362468416,1361355116.089998,-11704,-5476,2136,nan,0.000000
2,5,5,15,11404613,17605409,-2589960245362465795,1361355116.089998,-13416,-6048,4488,nan,0.000000
2,5,5,15,11404613,17605409,-2589960245362463174,1361355116.089998,-12516,-6124,4096,nan,0.000000
2,5,6,15,11404613,17605441,-2589960245362460553,1361355116.091430,-13104,-6792,4532,nan,0.000000
2,5,6,15,11404613,17605441,-2589960245362457932,1361355116.091430,-16648,-9620,7272,nan,0.000000
2,5,6,15,11404613,17605441,-2589960245362455311,1361355116.091430,-13696,-11984,5268,nan,0.000000
2,5,6,15,11404613,17605441,-2589960245362452690,1361355116.091430,-16776,-7780,4896,nan,0.000000
2,5,6,15,11404613,17605441,-2589960245362450069,1361355116.091430,-13420,-5640,2580,nan,0.000000
1,5,7,0,11485901,17605473,7501990767024321553,1361355116.092058,-13024,-4656,4256,nan,0.000000
1,5,7,0,11485901,17605473,7501990767024324174,1361355116.092058,-13768,-4648,796,nan,0.000000
2,5,8,0,11485901,17605505,7501990767024326795,1361355116.092344,-13116,-9236,3452,nan,0.000000
2,5,8,0,11485901,17605505,7501990767024329416,1361355116.092344,-12468,-8468,2704,nan,0.000000
2,5,8,0,11485901,17605505,7501990767024332037,1361355116.092344,-14648,-7188,5512,nan,0.000000
2,5,8,0,11485901,17605505,7501990767024334658,1361355116.092344,-15728,-8868,7452,nan,0.000000
2,5,8,0,11485901,17605505,7501990767024337279,1361355116.092344,-15716,-8316,2004,nan,0.000000
2,5,9,0,11485901,17605537,7501990767024339900,1361355116.093204,-16764,-1640,2764,nan,0.000000
2,5,9,0,11485901,17605537,7501990767024342521,1361355116.093204,-15652,-2460,2684,nan,0.000000
2,5,9,0,11485901,17605537,7501990767024345142,1361355116.093204,-13560,-13204,2956,nan,0.000000
2,5,9,0,11485901,17605537,7501990767024347763,1361355116.093204,-11976,-7020,1332,nan,0.000000
2,5,9,0,11485901,17605537,7501990767024350384,1361355116.093204,-14236,-7152,5468,nan,0.000000
2,5,10,0,11485901,17605569,7501990767024353005,1361355116.093717,-12528,-7016,4704,nan,0.000000
2,5,10,0,11485901,17605569,7501990767024355626,1361355116.093717,-12324,-6600,4120,nan,0.000000
2,5,10,0,11485901,17605569,7501990767024358247,1361355116.093717,-12420,-6624,4304,nan,0.000000
2,5,10,0,11485901,17605569,7501990767024360868,1361355116.093717,-15352,-10272,6672,nan,0.000000
2,5,10,0,11485901,17605569,7501990767024363489,1361355116.093717,-13220,-11752,7252,nan,0.000000
2,5,11,0,11485901,17605601,7501990767024366110,1361355116.095216,-16132,-9628,5136,nan,0.000000
2,5,11,0,11485901,17605601,7501990767024368731,1361355116.095216,-12564,-6000,3048,nan,0.000000
2,5,11,0,11485901,17605601,7501990767024371352,1361355116.095216,-14696,-7396,1740,nan,0.000000
2,5,11,0,11485901,17605601,7501990767024373973,1361355116.095216,-14536,-6944,6280,nan,0.000000
2,5,11,0,11485901,17605601,7501990767024376594,1361355116.095216,-12404,-6312,924,nan,0.000000
2,5,12,0,11485901,17605633,7501990767024379215,1361355116.095709,-12816,-9624,2656,nan,0.000000
2,5,12,0,11485901,17605633,7501990767024381836,1361355116.095709,-13564,-8140,3408,nan,0.000000
2,5,12,0,11485901,17605633,7501990767024384457,1361355116.095709,-13416,-8124,3600,nan,0.000000
2,5,12,0,11485901,17605633,7501990767024387078,1361355116.095709,-15580,-8844,6404,nan,0.000000
2,5,12,0,11485901,17605633,7501990767024389699,1361355116.095709,-16896,-8928,5048,nan,0.000000
2,5,13,0,11485901,17605664,7501990767024392320,1361355116.097401,-15804,-6072,2652,nan,0.000000
2,5,13,0,11485901,17605664,7501990767024394941,1361355116.097401,-12720,-1364,1728,nan,0.000000
2,5,13,0,11485901,17605664,7501990767024397562,1361355116.097401,-16280,-6532,4260,nan,0.000000
2,5,13,0,11485901,17605664,7501990767024400183,1361355116.097401,-13676,-8756,3040,nan,0.000000
2,5,13,0,11485901,17605664,7501990767024402804,1361355116.097401,-11812,-7144,3028,nan,0.000000
1,5,14,0,11567190,17605697,-4609806977469621238,1361355116.098005,-12628,-6216,3872,nan,0.000000
1,5,14,0,11567190,17605697,-4609806977469618617,1361355116.098005,-12736,-6292,4916,nan,0.000000
2,5,15,0,11567190,17605729,-4609806977469615996,1361355116.099015,-13648,-8464,5848,nan,0.000000
2,5,15,0,11567190,17605729,-4609806977469613375,1361355116.099015,-14636,-11888,8144,nan,0.000000
2,5,15,0,11567190,17605729,-4609806977469610754,1361355116.099015,-14980,-11344,5892,nan,0.000000
2,5,15,0,11567190,17605729,-4609806977469608133,1361355116.099015,-15576,-6840,3404,nan,0.000000
2,5,15,0,11567190,17605729,-4609806977469605512,1361355116.099015,-11928,-4364,1736,nan,0.000000
2,5,0,0,11567190,17605761,-4609806977469602891,1361355116.099826,-15448,-8800,5472,nan,0.000000
2,5,0,0,11567190,17605761,-4609806977469600270,1361355116.099826,-12828,-4816,1104,nan,0.000000
2,5,0,0,11567190,17605761,-4609806977469597649,1361355116.099826,-13004,-7904,2980,nan,0.000000
2,5,0,0,11567190,17605761,-4609806977469595028,1361355116.099826,-12508,-9244,2952,nan,0.000000
2,5,0,0,11567190,17605761,-4609806977469592407,1361355116.099826,-13144,-8100,3312,nan,0.000000
2,5,1,0,11567190,17605793,-4609806977469589786,1361355116.101050,-16544,-8708,7288,nan,0.000000
2,5,1,0,11567190,17605793,-4609806977469587165,1361355116.101050,-17036,-8296,5324,nan,0.000000
2,5,1,0,11567190,17605793,-4609806977469584544,1361355116.101050,-16812,-6496,3384,nan,0.000000
2,5,1,0,11567190,17605793,-4609806977469581923,1361355116.101050,-13376,-1072,2684,nan,0.000000
2,5,1,0,11567190,17605793,-4609806977469579302,1361355116.101050,-15324,-6596,3820,nan,0.000000
2,5,2,0,11567190,17605825,-4609806977469576681,1361355116.101777,-12756,-8016,3032,nan,0.000000
2,5,2,0,11567190,17605825,-4609806977469574060,1361355116.101777,-12076,-6668,3936,nan,0.000000
2,5,2,0,11567190,17605825,-4609806977469571439,1361355116.101777,-13536,-6936,5300,nan,0.000000
2,5,2,0,11567190,17605825,-4609806977469568818,1361355116.101777,-12152,-6724,4292,nan,0.000000
2,5,2,0,11567190,17605825,-4609806977469566197,1361355116.101777,-13144,-6308,4848,nan,0.000000
2,5,3,0,11567190,17605856,-4609806977469563576,1361355116.103074,-16292,-7936,7448,nan,0.000000
2,5,3,0,11567190,17605856,-4609806977469560955,1361355116.103074,-13528,-12280,5412,nan,0.000000
2,5,3,0,11567190,17605856,-4609806977469558334,1361355116.103074,-17824,-8820,5396,nan,0.000000
2,5,3,0,11567190,17605856,-4609806977469555713,1361355116.103074,-13124,-6576,508,nan,0.000000
2,5,3,0,11567190,17605856,-4609806977469553092,1361355116.103074,-11744,-7228,-1420,nan,0.000000
2,5,4,0,11567190,17605889,-4609806977469550471,1361355116.103562,-15340,-8816,4156,nan,0.000000
2,5,4,0,11567190,17605889,-4609806977469547850,1361355116.103562,-12804,-6672,376,nan,0.000000
2,5,4,0,11567190,17605889,-4609806977469545229,1361355116.103562,-13756,-7088,2904,nan,0.000000
2,5,4,0,11567190,17605889,-4609806977469542608,1361355116.103562,-13148,-8340,1604,nan,0.000000
2,5,4,0,11567190,17605889,-4609806977469539987,1361355116.103562,-13704,-7076,2504,nan,0.000000
1,5,5,0,11648478,17605920,8647457630107548688,1361355116.105053,-16264,-10112,1872,nan,0.000000
1,5,5,0,11648478,17605920,8647457630107551309,1361355116.105053,-16212,-5004,2452,nan,0.000000
2,5,6,0,11648478,17605953,8647457630107553930,1361355116.105418,-13048,-3296,1536,nan,0.000000
2,5,6,0,11648478,17605953,8647457630107556551,1361355116.105418,-15440,-6756,4080,nan,0.000000
2,5,6,0,11648478,17605953,8647457630107559172,1361355116.105418,-12892,-8228,2528,nan,0.000000
2,5,6,0,11648478,17605953,8647457630107561793,1361355116.105418,-12004,-7588,2908,nan,0.000000
2,5,6,0,11648478,17605953,8647457630107564414,1361355116.105418,-13740,-6024,5708,nan,0.000000
2,5,7,0,11648478,17605984,8647457630107567035,1361355116.107034,-12648,-6712,4816,nan,0.000000
2,5,7,0,11648478,17605984,8647457630107569656,1361355116.107034,-13752,-6744,4936,nan,0.000000
2,5,7,0,11648478,17605984,8647457630107572277,1361355116.107034,-16000,-10608,6584,nan,0.000000
2,5,7,0,11648478,17605984,8647457630107574898,1361355116.107034,-14584,-11188,4768,nan,0.000000
2,5,7,0,11648478,17605984,8647457630107577519,1361355116.107034,-17004,-8080,4276,nan,0.000000
2,5,8,0,11648478,17606017,8647457630107580140,1361355116.107480,-12240,-7672,-2364,nan,0.000000
2,5,8,0,11648478,17606017,8647457630107582761,1361355116.107480,-14936,-8444,2080,nan,0.000000
2,5,8,0,11648478,17606017,8647457630107585382,1361355116.107480,-12496,-4832,2412,nan,0.000000
2,5,8,0,11648478,17606017,8647457630107588003,1361355116.107480,-13800,-5200,1252,nan,0.000000
2,5,8,0,11648478,17606017,8647457630107590624,1361355116.107480,-13544,-9664,3088,nan,0.000000
2,5,9,0,11648478,17606048,8647457630107593245,1361355116.109050,-12500,-7996,1764,nan,0.000000
2,5,9,0,11648478,17606048,8647457630107595866,1361355116.109050,-14308,-7896,4260,nan,0.000000
2,5,9,0,11648478,17606048,8647457630107598487,1361355116.109050,-16904,-9328,6292,nan,0.000000
2,5,9,0,11648478,17606048,8647457630107601108,1361355116.109050,-17200,-9244,2084,nan,0.000000
2,5,9,0,11648478,17606048,8647457630107603729,1361355116.109050,-15464,-2704,2268,nan,0.000000
2,5,10,0,11648478,17606081,8647457630107606350,1361355116.109749,-14876,-3756,1796,nan,0.000000
2,5,10,0,11648478,17606081,8647457630107608971,1361355116.109749,-14848,-7712,1604,nan,0.000000
2,5,10,0,11648478,17606081,8647457630107611592,1361355116.109749,-12232,-6892,1696,nan,0.000000
2,5,10,0,11648478,17606081,8647457630107614213,1361355116.109749,-12408,-7108,3800,nan,0.000000
2,5,10,0,11648478,17606081,8647457630107616834,1361355116.109749,-13164,-6304,5060,nan,0.000000
2,5,11,0,11648478,17606112,8647457630107619455,1361355116.111011,-13020,-6872,4728,nan,0.000000
2,5,11,0,11648478,17606112,8647457630107622076,1361355116.111011,-15236,-8728,6708,nan,0.000000
2,5,11,0,11648478,17606112,8647457630107624697,1361355116.111011,-12824,-12412,6712,nan,0.000000
2,5,11,0,11648478,17606112,8647457630107627318,1361355116.111011,-16436,-8900,5980,nan,0.000000
2,5,11,0,11648478,17606112,8647457630107629939,1361355116.111011,-13668,-6596,2880,nan,0.000000
1,5,12,0,11729765,17606145,3754569277345396754,1361355116.111607,-14340,-6560,5128,nan,0.000000
1,5,12,0,11729765,17606145,3754569277345399375,1361355116.111607,-12924,-6232,2080,nan,0.000000
2,5,13,0,11729765,17606176,3754569277345401996,1361355116.113108,-12940,-7628,3108,nan,0.000000
2,5,13,0,11729765,17606176,3754569277345404617,1361355116.113108,-12744,-8056,3212,nan,0.000000
2,5,13,0,11729765,17606176,3754569277345407238,1361355116.113108,-13180,-8176,3652,nan,0.000000
2,5,13,0,11729765,17606176,3754569277345409859,1361355116.113108,-14540,-8944,5764,nan,0.000000
2,5,13,0,11729765,17606176,3754569277345412480,1361355116.113108,-15832,-9204,5372,nan,0.000000
2,5,14,0,11729765,17606209,3754569277345415101,1361355116.113514,-17992,-7708,3136,nan,0.000000
2,5,14,0,11729765,17606209,3754569277345417722,1361355116.113514,-14212,-1192,1308,nan,0.000000
2,5,14,0,11729765,17606209,3754569277345420343,1361355116.113514,-16000,-6012,2516,nan,0.000000
2,5,14,0,11729765,17606209,3754569277345422964,1361355116.113514,-14216,-7784,2360,nan,0.000000
2,5,14,0,11729765,17606209,3754569277345425585,1361355116.113514,-11224,-6292,2928,nan,0.000000
2,5,15,0,11729765,17606240,3754569277345428206,1361355116.115260,-12192,-6788,5260,nan,0.000000
2,5,15,0,11729765,17606240,3754569277345430827,1361355116.115260,-12456,-7376,5720,nan,0.000000
2,5,15,0,11729765,17606240,3754569277345433448,1361355116.115260,-12816,-7148,5200,nan,0.000000
2,5,15,0,11729765,17606240,3754569277345436069,1361355116.115260,-16056,-9444,8400,nan,0.000000
2,5,15,0,11729765,17606240,3754569277345438690,1361355116.115260,-13456,-12800,5372,nan,0.000000
2,5,0,0,11729765,17606273,3754569277345441311,1361355116.115706,-16872,-8472,4592,nan,0.000000
2,5,0,0,11729765,17606273,3754569277345443932,1361355116.115706,-11784,-6512,2028,nan,0.000000
2,5,0,0,11729765,17606273,3754569277345446553,1361355116.115706,-15240,-8408,3096,nan,0.000000
2,5,0,0,11729765,17606273,3754569277345449174,1361355116.115706,-12772,-5408,4184,nan,0.000000
2,5,0,0,11729765,17606273,3754569277345451795,1361355116.115706,-12692,-7480,1676,nan,0.000000
2,5,1,0,11729765,17606304,3754569277345454416,1361355116.117151,-13160,-8036,3524,nan,0.000000
2,5,1,0,11729765,17606304,3754569277345457037,1361355116.117151,-13004,-8800,3420,nan,0.000000
2,5,1,0,11729765,17606304,3754569277345459658,1361355116.117151,-13140,-8460,3664,nan,0.000000
2,5,1,0,11729765,17606304,3754569277345462279,1361355116.117151,-16632,-8436,7228,nan,0.000000
2,5,1,0,11729765,17606304,3754569277345464900,1361355116.117151,-15972,-9512,1672,nan,0.000000
2,5,2,0,11729765,17606337,3754569277345467521,1361355116.117518,-16460,-4380,2556,nan,0.000000
2,5,2,0,11729765,17606337,3754569277345470142,1361355116.117518,-13708,-1844,1292,nan,0.000000
2,5,2,0,11729765,17606337,3754569277345472763,1361355116.117518,-16116,-6388,2464,nan,0.000000
2,5,2,0,11729765,17606337,3754569277345475384,1361355116.117518,-12992,-7120,1332,nan,0.000000
2,5,2,0,11729765,17606337,3754569277345478005,1361355116.117518,-13036,-6788,3908,nan,0.000000
1,5,3,0,11811052,17606368,866323870822104073,1361355116.119297,-12680,-6760,4476,nan,0.000000
1,5,3,0,11811052,17606368,866323870822106694,1361355116.119297,-13892,-6288,4796,nan,0.000000
2,5,4,0,11811052,17606401,866323870822109315,1361355116.119605,-14760,-9744,6948,nan,0.000000
2,5,4,0,11811052,17606401,866323870822111936,1361355116.119605,-11888,-11340,5408,nan,0.000000
2,5,4,0,11811052,17606401,866323870822114557,1361355116.119605,-16536,-8544,7156,nan,0.000000
2,5,4,0,11811052,17606401,866323870822117178,1361355116.119605,-13392,-7264,3528,nan,0.000000
2,5,4,0,11811052,17606401,866323870822119799,1361355116.119605,-12208,-7940,2220,nan,0.000000
2,5,5,0,11811052,17606432,866323870822122420,1361355116.121271,-15864,-7292,5000,nan,0.000000
2,5,5,0,11811052,17606432,866323870822125041,1361355116.121271,-12944,-5756,3100,nan,0.000000
2,5,5,0,11811052,17606432,866323870822127662,1361355116.121271,-12928,-7968,2564,nan,0.000000
2,5,5,0,11811052,17606432,866323870822130283,1361355116.121271,-13068,-8164,3836,nan,0.000000
2,5,5,0,11811052,17606432,866323870822132904,1361355116.121271,-13668,-7920,3832,nan,0.000000
2,5,6,0,11811052,17606465,866323870822135525,1361355116.121716,-13680,-8788,5636,nan,0.000000
2,5,6,0,11811052,17606465,866323870822138146,1361355116.121716,-14080,-9796,5760,nan,0.000000
2,5,6,0,11811052,17606465,866323870822140767,1361355116.121716,-16104,-9280,4324,nan,0.000000
2,5,6,0,11811052,17606465,866323870822143388,1361355116.121716,-15512,-6052,3104,nan,0.000000
2,5,6,0,11811052,17606465,866323870822146009,1361355116.121716,-12992,-2216,2124,nan,0.000000
2,5,7,0,11811052,17606496,866323870822148630,1361355116.123265,-16064,-6976,4520,nan,0.000000
2,5,7,0,11811052,17606496,866323870822151251,1361355116.123265,-13076,-8428,2312,nan,0.000000
2,5,7,0,11811052,17606496,866323870822153872,1361355116.123265,-13324,-6868,4204,nan,0.000000
2,5,7,0,11811052,17606496,866323870822156493,1361355116.123265,-13724,-6648,5812,nan,0.000000
2,5,7,0,11811052,17606496,866323870822159114,1361355116.123265,-12684,-7316,4076,nan,0.000000
2,5,8,0,11811052,17606529,866323870822161735,1361355116.127378,-13576,-6656,5084,nan,0.000000
2,5,8,0,11811052,17606529,866323870822164356,1361355116.127378,-14068,-7928,5568,nan,0.000000
2,5,8,0,11811052,17606529,866323870822166977,1361355116.127378,-12636,-10356,5412,nan,0.000000
2,5,8,0,11811052,17606529,866323870822169598,1361355116.127378,-15340,-9836,6652,nan,0.000000
2,5,8,0,11811052,17606529,866323870822172219,1361355116.127378,-16432,-7560,4548,nan,0.000000
2,5,9,0,11811052,17606560,866323870822174840,1361355118.557353,-9812,-5668,2792,nan,0.000000
2,5,9,0,11811052,17606560,866323870822177461,1361355118.557353,-17008,-8764,3228,nan,0.000000
2,5,9,0,11811052,17606560,866323870822180082,1361355118.557353,-12876,-6648,3740,nan,0.000000
2,5,9,0,11811052,17606560,866323870822182703,1361355118.557353,-13500,-7084,3336,nan,0.000000
2,5,9,0,11811052,17606560,866323870822185324,1361355118.557353,-13348,-8172,2672,nan,0.000000
1,5,10,0,11892337,17686314,-7202165248177084406,1361355118.559002,-13332,-8244,4024,nan,0.000000
1,5,10,0,11892337,17686314,-7202165248177081785,1361355118.559002,-13960,-8584,5140,nan,0.000000
2,5,11,0,11892337,17686346,-7202165248177079164,1361355118.559595,-14060,-8904,5720,nan,0.000000
2,5,11,0,11892337,17686346,-7202165248177076543,1361355118.559595,-15148,-9316,4436,nan,0.000000
2,5,11,0,11892337,17686346,-7202165248177073922,1361355118.559595,-14948,-7524,4736,nan,0.000000
2,5,11,0,11892337,17686346,-7202165248177071301,1361355118.559595,-13124,-4676,2696,nan,0.000000
2,5,11,0,11892337,17686346,-7202165248177068680,1361355118.559595,-14528,-4616,4824,nan,0.000000
2,5,12,0,11892337,17686378,-7202165248177066059,1361355118.561002,-14208,-9564,4320,nan,0.000000
2,5,12,0,11892337,17686378,-7202165248177063438,1361355118.561002,-11940,-7464,3936,nan,0.000000
2,5,12,0,11892337,17686378,-7202165248177060817,1361355118.561002,-13100,-7424,6364,nan,0.000000
2,5,12,0,11892337,17686378,-7202165248177058196,1361355118.561002,-12136,-7736,4888,nan,0.000000
2,5,12,0,11892337,17686378,-7202165248177055575,1361355118.561002,-12948,-7880,5080,nan,0.000000
2,5,13,0,11892337,17686410,-7202165248177052954,1361355118.562034,-13668,-7356,6036,nan,0.000000
2,5,13,0,11892337,17686410,-7202165248177050333,1361355118.562034,-13128,-9004,6784,nan,0.000000
2,5,13,0,11892337,17686410,-7202165248177047712,1361355118.562034,-13380,-10560,6140,nan,0.000000
2,5,13,0,11892337,17686410,-7202165248177045091,1361355118.562034,-15860,-9136,6656,nan,0.000000
2,5,13,0,11892337,17686410,-7202165248177042470,1361355118.562034,-11732,-8460,3276,nan,0.000000
2,5,14,0,11892337,17686442,-7202165248177039849,1361355118.563004,-12568,-8472,2064,nan,0.000000
2,5,14,0,11892337,17686442,-7202165248177037228,1361355118.563004,-13996,-8340,5264,nan,0.000000
2,5,14,0,11892337,17686442,-7202165248177034607,1361355118.563004,-11444,-8512,2496,nan,0.000000
2,5,14,0,11892337,17686442,-7202165248177031986,1361355118.563004,-12264,-8224,2228,nan,0.000000
2,5,14,0,11892337,17686442,-7202165248177029365,1361355118.563004,-13068,-8576,3812,nan,0.000000
2,5,15,0,11892337,17686474,-7202165248177026744,1361355118.563992,-13280,-9268,3812,nan,0.000000
2,5,15,0,11892337,17686474,-7202165248177024123,1361355118.563992,-17872,-10232,8028,nan,0.000000
2,5,15,0,11892337,17686474,-7202165248177021502,1361355118.563992,-17064,-10128,2916,nan,0.000000
2,5,15,0,11892337,17686474,-7202165248177018881,1361355118.563992,-13832,-2288,1260,nan,0.000000
2,5,15,0,11892337,17686474,-7202165248177016260,1361355118.563992,-16096,-4880,5156,nan,0.000000
2,5,0,0,11892337,17686506,-7202165248177013639,1361355121.039272,-12056,-11432,3224,nan,0.000000
2,5,0,0,11892337,17686506,-7202165248177011018,1361355121.039272,-10372,-5728,1788,nan,0.000000
2,5,0,0,11892337,17686506,-7202165248177008397,1361355121.039272,-12740,-5520,6412,nan,0.000000
2,5,0,0,11892337,17686506,-7202165248177005776,1361355121.039272,-11504,-5924,4156,nan,0.000000
2,5,0,0,11892337,17686506,-7202165248177003155,1361355121.039272,-14700,-7648,6816,nan,0.000000
1,5,1,0,11973622,17767604,-286364601609119732,1361355121.040460,-14984,-12844,3584,nan,0.000000
1,5,1,0,11973622,17767604,-286364601609117111,1361355121.040460,-13280,-5240,2236,nan,0.000000
2,5,2,0,11973622,17767636,-286364601609114490,1361355121.041101,-16900,-11084,2276,nan,0.000000
2,5,2,0,11973622,17767636,-286364601609111869,1361355121.041101,-13464,-5904,3764,nan,0.000000
2,5,2,0,11973622,17767636,-286364601609109248,1361355121.041101,-10164,-4440,-228,nan,0.000000
2,5,2,0,11973622,17767636,-286364601609106627,1361355121.041101,-9964,-6176,1152,nan,0.000000
2,5,2,0,11973622,17767636,-286364601609104006,1361355121.041101,-13588,-7228,2808,nan,0.000000
2,5,3,0,11973622,17767668,-286364601609101385,1361355121.041951,-21472,-12048,7484,nan,0.000000
2,5,3,0,11973622,17767668,-286364601609098764,1361355121.041951,-19436,-7780,2332,nan,0.000000
2,5,3,0,11973622,17767668,-286364601609096143,1361355121.041951,-14044,256,516,nan,0.000000
2,5,3,0,11973622,17767668,-286364601609093522,1361355121.041951,-19908,-5840,4016,nan,0.000000
2,5,3,0,11973622,17767668,-286364601609090901,1361355121.041951,-9244,-10248,1172,nan,0.000000
2,5,4,0,11973622,17767700,-286364601609088280,1361355121.042666,-9036,-2584,1484,nan,0.000000
2,5,4,0,11973622,17767700,-286364601609085659,1361355121.042666,-11984,-3968,5744,nan,0.000000
2,5,4,0,11973622,17767700,-286364601609083038,1361355121.042666,-12684,-7020,6180,nan,0.000000
2,5,4,0,11973622,17767700,-286364601609080417,1361355121.042666,-18680,-12108,10032,nan,0.000000
2,5,4,0,11973622,17767700,-286364601609077796,1361355121.042666,-13588,-16524,6620,nan,0.000000
2,5,5,0,11973622,17767731,-286364601609075175,1361355121.043614,-15052,-5032,2096,nan,0.000000
2,5,5,0,11973622,17767731,-286364601609072554,1361355121.043614,-19172,-11044,5460,nan,0.000000
2,5,5,0,11973622,17767731,-286364601609069933,1361355121.043614,-9612,-5372,3408,nan,0.000000
2,5,5,0,11973622,17767731,-286364601609067312,1361355121.043614,-7608,-96,204,nan,0.000000
2,5,5,0,11973622,17767731,-286364601609064691,1361355121.043614,-10848,-6044,2624,nan,0.000000
2,5,6,0,11973622,17767764,-286364601609062070,1361355121.044455,-14280,-12652,3724,nan,0.000000
2,5,6,0,11973622,17767764,-286364601609059449,1361355121.044455,-25128,-11148,10692,nan,0.000000
2,5,6,0,11973622,17767764,-286364601609056828,1361355121.044455,-16776,-4636,-2464,nan,0.000000
2,5,6,0,11973622,17767764,-286364601609054207,1361355121.044455,-22196,5556,5088,nan,0.000000
2,5,6,0,11973622,17767764,-286364601609051586,1361355121.044455,-13320,-11864,3968,nan,0.000000
2,5,7,0,11973622,17767795,-286364601609048965,1361355123.533165,-6444,-3720,-1388,nan,0.000000
2,5,7,0,11973622,17767795,-286364601609046344,1361355123.533165,-7952,-1132,3832,nan,0.000000
2,5,7,0,11973622,17767795,-286364601609043723,1361355123.533165,-13848,-8248,7788,nan,0.000000
2,5,7,0,11973622,17767795,-286364601609041102,1361355123.533165,-18860,-13148,9148,nan,0.000000
2,5,7,0,11973622,17767795,-286364601609038481,1361355123.533165,-14092,-15260,4764,nan,0.000000
1,5,8,0,12054906,17849325,-572356292830522118,1361355123.534238,-19320,-12160,6604,nan,0.000000
1,5,8,0,12054906,17849325,-572356292830519497,1361355123.534238,-9240,-1604,296,nan,0.000000
2,5,9,0,12054906,17849357,-572356292830516876,1361355123.534848,-5744,392,1684,nan,0.000000
2,5,9,0,12054906,17849357,-572356292830514255,1361355123.534848,-11876,-10924,1424,nan,0.000000
2,5,9,0,12054906,17849357,-572356292830511634,1361355123.534848,-18584,-10232,5632,nan,0.000000
2,5,9,0,12054906,17849357,-572356292830509013,1361355123.534848,-23236,-8708,5920,nan,0.000000
2,5,9,0,12054906,17849357,-572356292830506392,1361355123.534848,-18360,3488,628,nan,0.000000
2,5,10,0,12054906,17849389,-572356292830503771,1361355123.536905,-20228,-4468,4244,nan,0.000000
2,5,10,0,12054906,17849389,-572356292830501150,1361355123.536905,-8500,-10436,2540,nan,0.000000
2,5,10,0,12054906,17849389,-572356292830498529,1361355123.536905,-5340,412,-968,nan,0.000000
2,5,10,0,12054906,17849389,-572356292830495908,1361355123.536905,-11756,-3760,6712,nan,0.000000
2,5,10,0,12054906,17849389,-572356292830493287,1361355123.536905,-16272,-11120,7820,nan,0.000000
2,5,11,0,12054906,17849456,-572356292830490666,1361355123.537991,-17744,-14072,9560,nan,0.000000
2,5,11,0,12054906,17849456,-572356292830488045,1361355123.537991,-15796,-8860,48,nan,0.000000
2,5,11,0,12054906,17849456,-572356292830485424,1361355123.537991,-22940,-6636,4788,nan,0.000000
2,5,11,0,12054906,17849456,-572356292830482803,1361355123.537991,-12368,-6548,3016,nan,0.000000
2,5,11,0,12054906,17849456,-572356292830480182,1361355123.537991,-6688,516,140,nan,0.000000
2,5,12,0,12054906,17849488,-572356292830477561,1361355123.538914,-7836,-4292,3004,nan,0.000000
2,5,12,0,12054906,17849488,-572356292830474940,1361355123.538914,-14628,-13864,3536,nan,0.000000
2,5,12,0,12054906,17849488,-572356292830472319,1361355123.538914,-24064,-11884,11232,nan,0.000000
2,5,12,0,12054906,17849488,-572356292830469698,1361355123.538914,-15404,-5024,-2492,nan,0.000000
2,5,12,0,12054906,17849488,-572356292830467077,1361355123.538914,-22776,5468,6372,nan,0.000000
2,5,13,0,12054906,17849520,-572356292830464456,1361355123.539670,-12572,-14928,4020,nan,0.000000
2,5,13,0,12054906,17849520,-572356292830461835,1361355123.539670,-5948,-2976,-104,nan,0.000000
2,5,13,0,12054906,17849520,-572356292830459214,1361355123.539670,-9528,-768,5472,nan,0.000000
2,5,13,0,12054906,17849520,-572356292830456593,1361355123.539670,-13380,-7716,6732,nan,0.000000
2,5,13,0,12054906,17849520,-572356292830453972,1361355123.539670,-18252,-13792,10584,nan,0.000000
2,5,14,0,12054906,17849552,-572356292830451351,1361355125.999189,-11896,-15336,5852,nan,0.000000
2,5,14,0,12054906,17849552,-572356292830448730,1361355125.999189,-21844,-2352,3472,nan,0.000000
2,5,14,0,12054906,17849552,-572356292830446109,1361355125.999189,-15536,-10036,6372,nan,0.000000
2,5,14,0,12054906,17849552,-572356292830443488,1361355125.999189,-8884,-5244,4272,nan,0.000000
2,5,14,0,12054906,17849552,-572356292830440867,1361355125.999189,-8672,40,1372,nan,0.000000
1,5,15,0,12136190,17930181,-8066561599673279466,1361355126.000837,-14352,-12772,5792,nan,0.000000
1,5,15,1,12136190,17930181,-8066561599673276845,1361355126.000837,-24440,-9440,9508,nan,0.000000
2,5,0,1,12136190,17930213,-8066561599673274224,1361355126.001540,-14348,-2432,-412,nan,0.000000
2,5,0,1,12136190,17930213,-8066561599673271603,1361355126.001540,-21720,2352,5844,nan,0.000000
2,5,0,1,12136190,17930213,-8066561599673268982,1361355126.001540,-11500,-12820,2400,nan,0.000000
2,5,0,1,12136190,17930213,-8066561599673266361,1361355126.001540,-6768,-1980,812,nan,0.000000
2,5,0,1,12136190,17930213,-8066561599673263740,1361355126.001540,-10796,-3292,5788,nan,0.000000
2,5,1,1,12136190,17930245,-8066561599673261119,1361355126.002876,-14576,-9364,5884,nan,0.000000
2,5,1,1,12136190,17930245,-8066561599673258498,1361355126.002876,-18244,-12824,10240,nan,0.000000
2,5,1,1,12136190,17930245,-8066561599673255877,1361355126.002876,-14764,-12652,800,nan,0.000000
2,5,1,1,12136190,17930245,-8066561599673253256,1361355126.002876,-22636,-2604,1348,nan,0.000000
2,5,1,1,12136190,17930245,-8066561599673250635,1361355126.002876,-14664,-8972,4780,nan,0.000000
2,5,2,1,12136190,17930277,-8066561599673248014,1361355126.003719,-8876,-792,436,nan,0.000000
2,5,2,1,12136190,17930277,-8066561599673245393,1361355126.003719,-8928,-3152,1252,nan,0.000000
2,5,2,1,12136190,17930277,-8066561599673242772,1361355126.003719,-11560,-11276,3380,nan,0.000000
2,5,2,1,12136190,17930277,-8066561599673240151,1361355126.003719,-20368,-12172,7616,nan,0.000000
2,5,2,1,12136190,17930277,-8066561599673237530,1361355126.003719,-19924,-7992,3588,nan,0.000000
2,5,3,1,12136190,17930308,-8066561599673234909,1361355126.004807,-17864,2352,1816,nan,0.000000
2,5,3,1,12136190,17930308,-8066561599673232288,1361355126.004807,-18896,-6636,3908,nan,0.000000
2,5,3,1,12136190,17930308,-8066561599673229667,1361355126.004807,-7604,-9664,740,nan,0.000000
2,5,3,1,12136190,17930308,-8066561599673227046,1361355126.004807,-7280,-808,1384,nan,0.000000
2,5,3,1,12136190,17930308,-8066561599673224425,1361355126.004807,-13968,-4816,6628,nan,0.000000
2,5,4,1,12136190,17930341,-8066561599673221804,1361355126.005866,-16516,-10988,5516,nan,0.000000
2,5,4,1,12136190,17930341,-8066561599673219183,1361355126.005866,-15772,-14048,6408,nan,0.000000
2,5,4,1,12136190,17930341,-8066561599673216562,1361355126.005866,-16508,-9260,-1148,nan,0.000000
2,5,4,1,12136190,17930341,-8066561599673213941,1361355126.005866,-21932,-7312,2688,nan,0.000000
2,5,4,1,12136190,17930341,-8066561599673211320,1361355126.005866,-12280,-5360,3652,nan,0.000000
1,5,6,0,12217474,18417908,-8357030659610736385,1361355140.884879,-13904,-13028,4560,nan,0.000000
1,5,6,0,12217474,18417908,-8357030659610733764,1361355140.884879,-6664,-5268,-1904,nan,0.000000
2,5,7,0,12217474,18417940,-8357030659610731143,1361355140.886529,-12664,-2468,3420,nan,0.000000
2,5,7,0,12217474,18417940,-8357030659610728522,1361355140.886529,-12928,-6320,6056,nan,0.000000
2,5,7,0,12217474,18417940,-8357030659610725901,1361355140.886529,-17248,-10400,6780,nan,0.000000
2,5,7,0,12217474,18417940,-8357030659610723280,1361355140.886529,-15760,-13804,6436,nan,0.000000
2,5,7,0,12217474,18417940,-8357030659610720659,1361355140.886529,-15960,-9376,-1224,nan,0.000000
2,5,8,0,12217474,18417972,-8357030659610718038,1361355140.887379,-18544,-8128,2192,nan,0.000000
2,5,8,0,12217474,18417972,-8357030659610715417,1361355140.887379,-13128,-4432,3316,nan,0.000000
2,5,8,0,12217474,18417972,-8357030659610712796,1361355140.887379,-9932,-2692,780,nan,0.000000
2,5,8,0,12217474,18417972,-8357030659610710175,1361355140.887379,-9076,-7608,2024,nan,0.000000
2,5,8,0,12217474,18417972,-8357030659610707554,1361355140.887379,-14452,-10640,3744,nan,0.000000
2,5,9,0,12217474,18418004,-8357030659610704933,1361355140.888531,-21588,-9900,8276,nan,0.000000
2,5,9,0,12217474,18418004,-8357030659610702312,1361355140.888531,-15564,-5612,-164,nan,0.000000
2,5,9,0,12217474,18418004,-8357030659610699691,1361355140.888531,-19700,404,3552,nan,0.000000
2,5,9,0,12217474,18418004,-8357030659610697070,1361355140.888531,-13632,-13216,3180,nan,0.000000
2,5,9,0,12217474,18418004,-8357030659610694449,1361355140.888531,-10136,-5868,48,nan,0.000000
2,5,10,0,12217474,18418036,-8357030659610691828,1361355140.889279,-11464,-5048,4044,nan,0.000000
2,5,10,0,12217474,18418036,-8357030659610689207,1361355140.889279,-11600,-5876,2484,nan,0.000000
2,5,10,0,12217474,18418036,-8357030659610686586,1361355140.889279,-17872,-8352,7040,nan,0.000000
2,5,10,0,12217474,18418036,-8357030659610683965,1361355140.889279,-15180,-12716,4932,nan,0.000000
2,5,10,0,12217474,18418036,-8357030659610681344,1361355140.889279,-14432,-9688,-3252,nan,0.000000
2,5,11,0,12217474,18418068,-8357030659610678723,1361355140.890462,-19292,-7864,2804,nan,0.000000
2,5,11,0,12217474,18418068,-8357030659610676102,1361355140.890462,-13568,-4940,2608,nan,0.000000
2,5,11,0,12217474,18418068,-8357030659610673481,1361355140.890462,-9956,-5816,-1008,nan,0.000000
2,5,11,0,12217474,18418068,-8357030659610670860,1361355140.890462,-11556,-6660,1588,nan,0.000000
2,5,11,0,12217474,18418068,-8357030659610668239,1361355140.890462,-15532,-9440,3592,nan,0.000000
2,5,12,0,12217474,18418100,-8357030659610665618,1361355140.891495,-19412,-10264,6908,nan,0.000000
2,5,12,0,12217474,18418100,-8357030659610662997,1361355140.891495,-16408,-9248,1008,nan,0.000000
2,5,12,0,12217474,18418100,-8357030659610660376,1361355140.891495,-14552,1088,1140,nan,0.000000
2,5,12,0,12217474,18418100,-8357030659610657755,1361355140.891495,-18508,-7692,6188,nan,0.000000
2,5,12,0,12217474,18418100,-8357030659610655134,1361355140.891495,-9648,-10620,1436,nan,0.000000
1,5,13,0,12298758,18418132,-1151829844569359334,1361355140.892532,-12604,-4832,3872,nan,0.000000
1,5,13,15,12298758,18418132,-1151829844569356713,1361355140.892532,-12640,-5092,5576,nan,0.000000
2,5,14,15,12298758,18418164,-1151829844569354092,1361355140.893123,-16716,-6864,6388,nan,0.000000
2,5,14,15,12298758,18418164,-1151829844569351471,1361355140.893123,-16400,-15792,6808,nan,0.000000
2,5,14,15,12298758,18418164,-1151829844569348850,1361355140.893123,-16448,-9004,2080,nan,0.000000
2,5,14,15,12298758,18418164,-1151829844569346229,1361355140.893123,-14552,-4776,1924,nan,0.000000
2,5,14,15,12298758,18418164,-1151829844569343608,1361355140.893123,-14592,-8948,3708,nan,0.000000
2,5,15,15,12298758,18418196,-1151829844569340987,1361355140.894485,-10892,-2452,1752,nan,0.000000
2,5,15,15,12298758,18418196,-1151829844569338366,1361355140.894485,-12200,-6236,2232,nan,0.000000
2,5,15,15,12298758,18418196,-1151829844569335745,1361355140.894485,-11616,-8540,3656,nan,0.000000
2,5,15,15,12298758,18418196,-1151829844569333124,1361355140.894485,-13832,-9544,3920,nan,0.000000
2,5,15,15,12298758,18418196,-1151829844569330503,1361355140.894485,-20752,-11076,8932,nan,0.000000
2,5,0,15,12298758,18418228,-1151829844569327882,1361355140.895308,-15488,-7640,-364,nan,0.000000
2,5,0,15,12298758,18418228,-1151829844569325261,1361355140.895308,-19128,3792,4048,nan,0.000000
2,5,0,15,12298758,18418228,-1151829844569322640,1361355140.895308,-15940,-8436,3612,nan,0.000000
2,5,0,15,12298758,18418228,-1151829844569320019,1361355140.895308,-10196,-8644,1376,nan,0.000000
2,5,0,15,12298758,18418228,-1151829844569317398,1361355140.895308,-10324,-2964,2864,nan,0.000000
2,5,1,15,12298758,18418260,-1151829844569314777,1361355140.896758,-11304,-6436,7288,nan,0.000000
2,5,1,15,12298758,18418260,-1151829844569312156,1361355140.896758,-13052,-9596,5616,nan,0.000000
2,5,1,15,12298758,18418260,-1151829844569309535,1361355140.896758,-16720,-11352,11164,nan,0.000000
2,5,1,15,12298758,18418260,-1151829844569306914,1361355140.896758,-15564,-13168,4500,nan,0.000000
2,5,1,15,12298758,18418260,-1151829844569304293,1361355140.896758,-15296,-3152,3320,nan,0.000000
2,5,2,15,12298758,18418292,-1151829844569301672,1361355140.897363,-15572,-12040,4056,nan,0.000000
2,5,2,15,12298758,18418292,-1151829844569299051,1361355140.897363,-11220,-3988,3460,nan,0.000000
2,5,2,15,12298758,18418292,-1151829844569296430,1361355140.897363,-11532,-2488,1980,nan,0.000000
2,5,2,15,12298758,18418292,-1151829844569293809,1361355140.897363,-11140,-8676,3832,nan,0.000000
2,5,2,15,12298758,18418292,-1151829844569291188,1361355140.897363,-11300,-9692,2636,nan,0.000000
2,5,3,15,12298758,18418324,-1151829844569288567,1361355140.898691,-23008,-8392,10788,nan,0.000000
2,5,3,15,12298758,18418324,-1151829844569285946,1361355140.898691,-16856,-7044,-780,nan,0.000000
2,5,3,15,12298758,18418324,-1151829844569283325,1361355140.898691,-17540,3136,3912,nan,0.000000
2,5,3,15,12298758,18418324,-1151829844569280704,1361355140.898691,-17096,-8816,3088,nan,0.000000
2,5,3,15,12298758,18418324,-1151829844569278083,1361355140.898691,-10140,-6976,772,nan,0.000000
1,5,4,0,12380042,18418356,-793622114946112470,1361355140.899259,-10160,-4588,4592,nan,0.000000
1,5,4,0,12380042,18418356,-793622114946109849,1361355140.899259,-15872,-9016,5932,nan,0.000000
2,5,5,0,12380042,18418388,-793622114946107228,1361355140.900625,-17684,-12536,9632,nan,0.000000
2,5,5,0,12380042,18418388,-793622114946104607,1361355140.900625,-14976,-13448,2132,nan,0.000000
2,5,5,0,12380042,18418388,-793622114946101986,1361355140.900625,-15840,-2968,3328,nan,0.000000
2,5,5,0,12380042,18418388,-793622114946099365,1361355140.900625,-16036,-11308,3308,nan,0.000000
2,5,5,0,12380042,18418388,-793622114946096744,1361355140.900625,-10660,-2796,2888,nan,0.000000
2,5,6,0,12380042,18418420,-793622114946094123,1361355140.901031,-10344,-3960,232,nan,0.000000
2,5,6,0,12380042,18418420,-793622114946091502,1361355140.901031,-11352,-9872,2556,nan,0.000000
2,5,6,0,12380042,18418420,-793622114946088881,1361355140.901031,-14612,-10516,3996,nan,0.000000
2,5,6,0,12380042,18418420,-793622114946086260,1361355140.901031,-21848,-8896,7228,nan,0.000000
2,5,6,0,12380042,18418420,-793622114946083639,1361355140.901031,-16704,-5584,-992,nan,0.000000
2,5,7,0,12380042,18418452,-793622114946081018,1361355140.902727,-17952,2968,3856,nan,0.000000
2,5,7,0,12380042,18418452,-793622114946078397,1361355140.902727,-15576,-10116,1980,nan,0.000000
2,5,7,0,12380042,18418452,-793622114946075776,1361355140.902727,-9468,-5212,348,nan,0.000000
2,5,7,0,12380042,18418452,-793622114946073155,1361355140.902727,-9836,-3500,2844,nan,0.000000
2,5,7,0,12380042,18418452,-793622114946070534,1361355140.902727,-13300,-5572,5648,nan,0.000000
2,5,8,0,12380042,18418484,-793622114946067913,1361355140.903227,-18040,-8256,6100,nan,0.000000
2,5,8,0,12380042,18418484,-793622114946065292,1361355140.903227,-15476,-13332,8020,nan,0.000000
2,5,8,0,12380042,18418484,-793622114946062671,1361355140.903227,-16620,-8884,824,nan,0.000000
2,5,8,0,12380042,18418484,-793622114946060050,1361355140.903227,-18292,-3640,1308,nan,0.000000
2,5,8,0,12380042,18418484,-793622114946057429,1361355140.903227,-12756,-10028,4464,nan,0.000000
2,5,9,0,12380042,18418516,-793622114946054808,1361355140.904723,-10844,-2280,372,nan,0.000000
2,5,9,0,12380042,18418516,-793622114946052187,1361355140.904723,-10864,-4828,1308,nan,0.000000
2,5,9,0,12380042,18418516,-793622114946049566,1361355140.904723,-11592,-9728,1668,nan,0.000000
2,5,9,0,12380042,18418516,-793622114946046945,1361355140.904723,-20748,-10600,5332,nan,0.000000
2,5,9,0,12380042,18418516,-793622114946044324,1361355140.904723,-20488,-6548,3552,nan,0.000000
2,5,10,0,12380042,18418548,-793622114946041703,1361355140.905245,-14728,-392,-128,nan,0.000000
2,5,10,0,12380042,18418548,-793622114946039082,1361355140.905245,-19740,-2712,1824,nan,0.000000
2,5,10,0,12380042,18418548,-793622114946036461,1361355140.905245,-10948,-10804,520,nan,0.000000
2,5,10,0,12380042,18418548,-793622114946033840,1361355140.905245,-8832,-2628,888,nan,0.000000
2,5,10,0,12380042,18418548,-793622114946031219,1361355140.905245,-12116,-4332,4964,nan,0.000000
1,5,11,0,12461326,18418580,2307928739363848447,1361355140.906574,-19876,-10540,8608,nan,0.000000
1,5,11,0,12461326,18418580,2307928739363851068,1361355140.906574,-15408,-13912,2144,nan,0.000000
2,5,12,0,12461326,18418612,2307928739363853689,1361355140.906917,-16296,-4380,1336,nan,0.000000
2,5,12,0,12461326,18418612,2307928739363856310,1361355140.906917,-16444,-10196,2628,nan,0.000000
2,5,12,0,12461326,18418612,2307928739363858931,1361355140.906917,-10480,-3296,2240,nan,0.000000
2,5,12,0,12461326,18418612,2307928739363861552,1361355140.906917,-10260,-4024,1320,nan,0.000000
2,5,12,0,12461326,18418612,2307928739363864173,1361355140.906917,-10564,-8472,1036,nan,0.000000
2,5,13,0,12461326,18418644,2307928739363866794,1361355140.908567,-17528,-9316,4212,nan,0.000000
2,5,13,0,12461326,18418644,2307928739363869415,1361355140.908567,-22656,-8492,5816,nan,0.000000
2,5,13,0,12461326,18418644,2307928739363872036,1361355140.908567,-15292,-2652,-564,nan,0.000000
2,5,13,0,12461326,18418644,2307928739363874657,1361355140.908567,-20100,-356,3336,nan,0.000000
2,5,13,0,12461326,18418644,2307928739363877278,1361355140.908567,-12004,-11592,1068,nan,0.000000
2,5,14,0,12461326,18418676,2307928739363879899,1361355140.909027,-8804,-3088,52,nan,0.000000
2,5,14,0,12461326,18418676,2307928739363882520,1361355140.909027,-11952,-2932,5188,nan,0.000000
2,5,14,0,12461326,18418676,2307928739363885141,1361355140.909027,-12852,-7032,4992,nan,0.000000
2,5,14,0,12461326,18418676,2307928739363887762,1361355140.909027,-18964,-10016,7656,nan,0.000000
2,5,14,0,12461326,18418676,2307928739363890383,1361355140.909027,-14276,-14964,5024,nan,0.000000
2,5,15,0,12461326,18418708,2307928739363893004,1361355140.910638,-17784,-5712,1728,nan,0.000000
2,5,15,0,12461326,18418708,2307928739363895625,1361355140.910638,-17204,-6928,3960,nan,0.000000
2,5,15,0,12461326,18418708,2307928739363898246,1361355140.910638,-12052,-7276,2608,nan,0.000000
2,5,15,0,12461326,18418708,2307928739363900867,1361355140.910638,-10332,-1792,1632,nan,0.000000
2,5,15,0,12461326,18418708,2307928739363903488,1361355140.910638,-10768,-8000,2384,nan,0.000000
2,5,0,0,12461326,18418740,2307928739363906109,1361355140.911330,-12140,-8608,708,nan,0.000000
2,5,0,0,12461326,18418740,2307928739363908730,1361355140.911330,-22764,-10356,10012,nan,0.000000
2,5,0,0,12461326,18418740,2307928739363911351,1361355140.911330,-18368,-6764,-952,nan,0.000000
2,5,0,0,12461326,18418740,2307928739363913972,1361355140.911330,-16680,1288,2764,nan,0.000000
2,5,0,0,12461326,18418740,2307928739363916593,1361355140.911330,-16816,-8168,2888,nan,0.000000
2,5,1,0,12461326,18418772,2307928739363919214,1361355140.911900,-10244,-7504,224,nan,0.000000
2,5,1,0,12461326,18418772,2307928739363921835,1361355140.911900,-10304,-3060,2684,nan,0.000000
2,5,1,0,12461326,18418772,2307928739363924456,1361355140.911900,-11340,-4996,5516,nan,0.000000
2,5,1,0,12461326,18418772,2307928739363927077,1361355140.911900,-15852,-8060,6008,nan,0.000000
2,5,1,0,12461326,18418772,2307928739363929698,1361355140.911900,-17452,-11528,8396,nan,0.000000
1,5,2,0,12542610,18418803,8937970655817097216,1361355140.912442,-16356,-3996,3796,nan,0.000000
1,5,2,0,12542610,18418803,8937970655817099837,1361355140.912442,-15492,-10196,3364,nan,0.000000
2,5,3,0,12542610,18418836,8937970655817102458,1361355140.912771,-11756,-2700,3112,nan,0.000000
2,5,3,0,12542610,18418836,8937970655817105079,1361355140.912771,-11312,-5092,1160,nan,0.000000
2,5,3,0,12542610,18418836,8937970655817107700,1361355140.912771,-10520,-8976,1268,nan,0.000000
2,5,3,0,12542610,18418836,8937970655817110321,1361355140.912771,-15420,-7816,4760,nan,0.000000
2,5,3,0,12542610,18418836,8937970655817112942,1361355140.912771,-20892,-9504,7116,nan,0.000000
2,5,4,0,12542610,18418868,8937970655817115563,1361355140.914453,-17280,-4592,-20,nan,0.000000
2,5,4,0,12542610,18418868,8937970655817118184,1361355140.914453,-16956,524,2448,nan,0.000000
2,5,4,0,12542610,18418868,8937970655817120805,1361355140.914453,-14748,-12324,2856,nan,0.000000
2,5,4,0,12542610,18418868,8937970655817123426,1361355140.914453,-10600,-4836,124,nan,0.000000
2,5,4,0,12542610,18418868,8937970655817126047,1361355140.914453,-12328,-4520,5140,nan,0.000000
2,5,5,0,12542610,18418900,8937970655817128668,1361355140.914871,-11244,-5888,4236,nan,0.000000
2,5,5,0,12542610,18418900,8937970655817131289,1361355140.914871,-15492,-7660,5012,nan,0.000000
2,5,5,0,12542610,18418900,8937970655817133910,1361355140.914871,-16348,-12256,8976,nan,0.000000
2,5,5,0,12542610,18418900,8937970655817136531,1361355140.914871,-13656,-13556,2012,nan,0.000000
2,5,5,0,12542610,18418900,8937970655817139152,1361355140.914871,-15460,-4296,2572,nan,0.000000
2,5,6,0,12542610,18418932,8937970655817141773,1361355140.916457,-15452,-9504,2404,nan,0.000000
2,5,6,0,12542610,18418932,8937970655817144394,1361355140.916457,-12804,-6268,3128,nan,0.000000
2,5,6,0,12542610,18418932,8937970655817147015,1361355140.916457,-12016,-5608,704,nan,0.000000
2,5,6,0,12542610,18418932,8937970655817149636,1361355140.916457,-12392,-8284,2496,nan,0.000000
2,5,6,0,12542610,18418932,8937970655817152257,1361355140.916457,-13424,-8032,2844,nan,0.000000
2,5,7,0,12542610,18418964,8937970655817154878,1361355140.917143,-16664,-9328,5512,nan,0.000000
2,5,7,0,12542610,18418964,8937970655817157499,1361355140.917143,-18952,-8688,4924,nan,0.000000
2,5,7,0,12542610,18418964,8937970655817160120,1361355140.917143,-15236,-4608,1672,nan,0.000000
2,5,7,0,12542610,18418964,8937970655817162741,1361355140.917143,-14472,-1400,3168,nan,0.000000
2,5,7,0,12542610,18418964,8937970655817165362,1361355140.917143,-14700,-9824,3060,nan,0.000000
2,5,8,0,12542610,18418996,8937970655817167983,1361355140.918462,-11660,-6792,1720,nan,0.000000
2,5,8,0,12542610,18418996,8937970655817170604,1361355140.918462,-12548,-5948,5040,nan,0.000000
2,5,8,0,12542610,18418996,8937970655817173225,1361355140.918462,-12824,-6204,5480,nan,0.000000
2,5,8,0,12542610,18418996,8937970655817175846,1361355140.918462,-13148,-6268,4784,nan,0.000000
2,5,8,0,12542610,18418996,8937970655817178467,1361355140.918462,-16080,-7676,7044,nan,0.000000
1,5,9,0,12623894,18419028,-5759042993523869690,1361355140.919199,-16428,-9964,4860,nan,0.000000
1,5,9,0,12623894,18419028,-5759042993523867069,1361355140.919199,-13008,-5656,3164,nan,0.000000
2,5,10,0,12623894,18419060,-5759042993523864448,1361355140.920481,-13712,-9068,1812,nan,0.000000
2,5,10,0,12623894,18419060,-5759042993523861827,1361355140.920481,-14296,-5600,4532,nan,0.000000
2,5,10,0,12623894,18419060,-5759042993523859206,1361355140.920481,-12884,-5660,2624,nan,0.000000
2,5,10,0,12623894,18419060,-5759042993523856585,1361355140.920481,-12644,-8932,2924,nan,0.000000
2,5,10,0,12623894,18419060,-5759042993523853964,1361355140.920481,-12892,-8900,3880,nan,0.000000
2,5,11,0,12623894,18419092,-5759042993523851343,1361355140.920899,-14016,-8416,3744,nan,0.000000
2,5,11,0,12623894,18419092,-5759042993523848722,1361355140.920899,-16464,-9560,7128,nan,0.000000
2,5,11,0,12623894,18419092,-5759042993523846101,1361355140.920899,-16428,-9864,3328,nan,0.000000
2,5,11,0,12623894,18419092,-5759042993523843480,1361355140.920899,-14316,-3980,2404,nan,0.000000
2,5,11,0,12623894,18419092,-5759042993523840859,1361355140.920899,-13036,-3252,3156,nan,0.000000
2,5,12,0,12623894,18419123,-5759042993523838238,1361355140.922626,-15248,-11536,4952,nan,0.000000
2,5,12,0,12623894,18419123,-5759042993523835617,1361355140.922626,-11548,-6568,2796,nan,0.000000
2,5,12,0,12623894,18419123,-5759042993523832996,1361355140.922626,-12176,-7064,6016,nan,0.000000
2,5,12,0,12623894,18419123,-5759042993523830375,1361355140.922626,-11804,-5900,5920,nan,0.000000
2,5,12,0,12623894,18419123,-5759042993523827754,1361355140.922626,-14228,-6600,5448,nan,0.000000
2,5,13,0,12623894,18419156,-5759042993523825133,1361355140.923147,-15932,-9984,8100,nan,0.000000
2,5,13,0,12623894,18419156,-5759042993523822512,1361355140.923147,-13528,-13060,5052,nan,0.000000
2,5,13,0,12623894,18419156,-5759042993523819891,1361355140.923147,-15756,-7508,3832,nan,0.000000
2,5,13,0,12623894,18419156,-5759042993523817270,1361355140.923147,-12112,-6100,1356,nan,0.000000
2,5,13,0,12623894,18419156,-5759042993523814649,1361355140.923147,-15936,-7536,4800,nan,0.000000
2,5,14,0,12623894,18419187,-5759042993523812028,1361355140.924718,-11764,-5716,2376,nan,0.000000
2,5,14,0,12623894,18419187,-5759042993523809407,1361355140.924718,-12128,-8312,1952,nan,0.000000
2,5,14,0,12623894,18419187,-5759042993523806786,1361355140.924718,-13364,-7580,4240,nan,0.000000
2,5,14,0,12623894,18419187,-5759042993523804165,1361355140.924718,-14680,-8876,3900,nan,0.000000
2,5,14,0,12623894,18419187,-5759042993523801544,1361355140.924718,-16768,-8524,6648,nan,0.000000
1,5,0,0,12705176,19312061,5190272045250635788,1361355168.174027,-12224,-5656,4968,nan,0.000000
1,5,0,1,12705176,19312061,5190272045250638409,1361355168.174027,-14240,-5416,5728,nan,0.000000
2,5,1,1,12705176,19312093,5190272045250641030,1361355168.174822,-15192,-10248,8560,nan,0.000000
2,5,1,1,12705176,19312093,5190272045250643651,1361355168.174822,-13716,-12276,5380,nan,0.000000
2,5,1,1,12705176,19312093,5190272045250646272,1361355168.174822,-16144,-7096,5164,nan,0.000000
2,5,1,1,12705176,19312093,5190272045250648893,1361355168.174822,-12756,-5276,2800,nan,0.000000
2,5,1,1,12705176,19312093,5190272045250651514,1361355168.174822,-16368,-8244,4516,nan,0.000000
2,5,2,1,12705176,19312125,5190272045250654135,1361355168.180191,-12208,-4512,3288,nan,0.000000
2,5,2,1,12705176,19312125,5190272045250656756,1361355168.180191,-11900,-7236,3336,nan,0.000000
2,5,2,1,12705176,19312125,5190272045250659377,1361355168.180191,-12236,-7876,3832,nan,0.000000
2,5,2,1,12705176,19312125,5190272045250661998,1361355168.180191,-13952,-9152,4960,nan,0.000000
2,5,2,1,12705176,19312125,5190272045250664619,1361355168.180191,-15788,-9776,8708,nan,0.000000
2,5,3,1,12705176,19312157,5190272045250667240,1361355168.185083,-15728,-9812,4324,nan,0.000000
2,5,3,1,12705176,19312157,5190272045250669861,1361355168.185083,-15348,-4792,4308,nan,0.000000
2,5,3,1,12705176,19312157,5190272045250672482,1361355168.185083,-13492,-2216,4648,nan,0.000000
2,5,3,1,12705176,19312157,5190272045250675103,1361355168.185083,-13960,-11696,4712,nan,0.000000
2,5,3,1,12705176,19312157,5190272045250677724,1361355168.185083,-10480,-6704,3224,nan,0.000000
2,5,4,1,12705176,19312189,5190272045250680345,1361355168.187950,-11128,-7272,6988,nan,0.000000
2,5,4,1,12705176,19312189,5190272045250682966,1361355168.187950,-11092,-6700,6252,nan,0.000000
2,5,4,1,12705176,19312189,5190272045250685587,1361355168.187950,-13716,-6492,5268,nan,0.000000
2,5,4,1,12705176,19312189,5190272045250688208,1361355168.187950,-15956,-11740,10352,nan,0.000000
2,5,4,1,12705176,19312189,5190272045250690829,1361355168.187950,-13280,-12552,4888,nan,0.000000
2,5,5,1,12705176,19312221,5190272045250693450,1361355168.191732,-15224,-6136,5572,nan,0.000000
2,5,5,1,12705176,19312221,5190272045250696071,1361355168.191732,-15488,-6616,3008,nan,0.000000
2,5,5,1,12705176,19312221,5190272045250698692,1361355168.191732,-11988,-6980,4268,nan,0.000000
2,5,5,1,12705176,19312221,5190272045250701313,1361355168.191732,-11904,-4616,1876,nan,0.000000
2,5,5,1,12705176,19312221,5190272045250703934,1361355168.191732,-11988,-8448,3176,nan,0.000000
2,5,6,1,12705176,19312253,5190272045250706555,1361355168.194273,-12068,-8952,3120,nan,0.000000
2,5,6,1,12705176,19312253,5190272045250709176,1361355168.194273,-16844,-10028,6720,nan,0.000000
2,5,6,1,12705176,19312253,5190272045250711797,1361355168.194273,-18828,-9832,6156,nan,0.000000
2,5,6,1,12705176,19312253,5190272045250714418,1361355168.194273,-15412,-4056,2024,nan,0.000000
2,5,6,1,12705176,19312253,5190272045250717039,1361355168.194273,-15240,-604,4432,nan,0.000000
1,5,7,0,12786459,19312285,4619238392884768780,1361355168.197394,-10628,-5196,2640,nan,0.000000
1,5,7,15,12786459,19312285,4619238392884771401,1361355168.197394,-10564,-5840,5604,nan,0.000000
2,5,8,15,12786459,19312317,4619238392884774022,1361355168.198313,-12044,-6096,6032,nan,0.000000
2,5,8,15,12786459,19312317,4619238392884776643,1361355168.198313,-14336,-6488,5856,nan,0.000000
2,5,8,15,12786459,19312317,4619238392884779264,1361355168.198313,-16740,-13336,9368,nan,0.000000
2,5,8,15,12786459,19312317,4619238392884781885,1361355168.198313,-12016,-13496,5460,nan,0.000000
2,5,8,15,12786459,19312317,4619238392884784506,1361355168.198313,-15944,-4760,4440,nan,0.000000
2,5,9,15,12786459,19312349,4619238392884787127,1361355168.198733,-15064,-7676,3192,nan,0.000000
2,5,9,15,12786459,19312349,4619238392884789748,1361355168.198733,-12004,-7768,5416,nan,0.000000
2,5,9,15,12786459,19312349,4619238392884792369,1361355168.198733,-11924,-3632,1404,nan,0.000000
2,5,9,15,12786459,19312349,4619238392884794990,1361355168.198733,-11536,-8220,2624,nan,0.000000
2,5,9,15,12786459,19312349,4619238392884797611,1361355168.198733,-12516,-8612,3208,nan,0.000000
2,5,10,15,12786459,19312381,4619238392884800232,1361355168.199102,-17800,-10296,6864,nan,0.000000
2,5,10,15,12786459,19312381,4619238392884802853,1361355168.199102,-19428,-8744,5120,nan,0.000000
2,5,10,15,12786459,19312381,4619238392884805474,1361355168.199102,-15672,-2296,2476,nan,0.000000
2,5,10,15,12786459,19312381,4619238392884808095,1361355168.199102,-15644,-428,3736,nan,0.000000
2,5,10,15,12786459,19312381,4619238392884810716,1361355168.199102,-14168,-10108,3192,nan,0.000000
2,5,11,15,12786459,19312413,4619238392884813337,1361355168.199500,-10804,-4448,2720,nan,0.000000
2,5,11,15,12786459,19312413,4619238392884815958,1361355168.199500,-11068,-4544,5228,nan,0.000000
2,5,11,15,12786459,19312413,4619238392884818579,1361355168.199500,-12812,-6012,6428,nan,0.000000
2,5,11,15,12786459,19312413,4619238392884821200,1361355168.199500,-16272,-7624,6084,nan,0.000000
2,5,11,15,12786459,19312413,4619238392884823821,1361355168.199500,-14388,-13688,9196,nan,0.000000
2,5,12,15,12786459,19312445,4619238392884826442,1361355168.199976,-14048,-12252,4476,nan,0.000000
2,5,12,15,12786459,19312445,4619238392884829063,1361355168.199976,-14780,-2780,4872,nan,0.000000
2,5,12,15,12786459,19312445,4619238392884831684,1361355168.199976,-15808,-10956,4236,nan,0.000000
2,5,12,15,12786459,19312445,4619238392884834305,1361355168.199976,-12632,-3452,3572,nan,0.000000
2,5,12,15,12786459,19312445,4619238392884836926,1361355168.199976,-12296,-3640,2424,nan,0.000000
2,5,13,15,12786459,19312477,4619238392884839547,1361355168.200354,-10480,-9604,2952,nan,0.000000
2,5,13,15,12786459,19312477,4619238392884842168,1361355168.200354,-10360,-8912,2208,nan,0.000000
2,5,13,15,12786459,19312477,4619238392884844789,1361355168.200354,-21620,-11020,10284,nan,0.000000
2,5,13,15,12786459,19312477,4619238392884847410,1361355168.200354,-17484,-9576,2488,nan,0.000000
2,5,13,15,12786459,19312477,4619238392884850031,1361355168.200354,-15188,-84,3072,nan,0.000000
1,5,14,0,12867741,19312509,-6915223499785664501,1361355168.200669,-11912,-12112,2324,nan,0.000000
1,5,14,0,12867741,19312509,-6915223499785661880,1361355168.200669,-10576,-4012,2120,nan,0.000000
2,5,15,0,12867741,19312541,-6915223499785659259,1361355168.200857,-12740,-5544,6280,nan,0.000000
2,5,15,0,12867741,19312541,-6915223499785656638,1361355168.200857,-12448,-6920,5784,nan,0.000000
2,5,15,0,12867741,19312541,-6915223499785654017,1361355168.200857,-16668,-7100,6124,nan,0.000000
2,5,15,0,12867741,19312541,-6915223499785651396,1361355168.200857,-13824,-16556,8928,nan,0.000000
2,5,15,0,12867741,19312541,-6915223499785648775,1361355168.200857,-15388,-9228,2264,nan,0.000000
2,5,0,0,12867741,19312573,-6915223499785646154,1361355168.201156,-15436,-2988,4344,nan,0.000000
2,5,0,0,12867741,19312573,-6915223499785643533,1361355168.201156,-15072,-10496,3856,nan,0.000000
2,5,0,0,12867741,19312573,-6915223499785640912,1361355168.201156,-11380,-3320,2028,nan,0.000000
2,5,0,0,12867741,19312573,-6915223499785638291,1361355168.201156,-11836,-5616,2156,nan,0.000000
2,5,0,0,12867741,19312573,-6915223499785635670,1361355168.201156,-11420,-8680,2844,nan,0.000000
2,5,1,0,12867741,19312605,-6915223499785633049,1361355168.201455,-13544,-10424,4436,nan,0.000000
2,5,1,0,12867741,19312605,-6915223499785630428,1361355168.201455,-20064,-10072,9012,nan,0.000000
2,5,1,0,12867741,19312605,-6915223499785627807,1361355168.201455,-16980,-7396,928,nan,0.000000
2,5,1,0,12867741,19312605,-6915223499785625186,1361355168.201455,-14928,912,4004,nan,0.000000
2,5,1,0,12867741,19312605,-6915223499785622565,1361355168.201455,-16420,-8172,3980,nan,0.000000
2,5,2,0,12867741,19312637,-6915223499785619944,1361355168.201773,-10628,-8624,1840,nan,0.000000
2,5,2,0,12867741,19312637,-6915223499785617323,1361355168.201773,-10716,-3960,4040,nan,0.000000
2,5,2,0,12867741,19312637,-6915223499785614702,1361355168.201773,-11720,-5300,6156,nan,0.000000
2,5,2,0,12867741,19312637,-6915223499785612081,1361355168.201773,-13652,-7260,5380,nan,0.000000
2,5,2,0,12867741,19312637,-6915223499785609460,1361355168.201773,-17472,-11540,9704,nan,0.000000
2,5,3,0,12867741,19312669,-6915223499785606839,1361355168.202090,-12472,-14580,5032,nan,0.000000
2,5,3,0,12867741,19312669,-6915223499785604218,1361355168.202090,-15636,-5164,4068,nan,0.000000
2,5,3,0,12867741,19312669,-6915223499785601597,1361355168.202090,-14576,-8008,3192,nan,0.000000
2,5,3,0,12867741,19312669,-6915223499785598976,1361355168.202090,-12932,-7860,5140,nan,0.000000
2,5,3,0,12867741,19312669,-6915223499785596355,1361355168.202090,-12288,-2864,1576,nan,0.000000
2,5,4,0,12867741,19312701,-6915223499785593734,1361355168.202420,-10932,-8796,2716,nan,0.000000
2,5,4,0,12867741,19312701,-6915223499785591113,1361355168.202420,-11472,-8264,2464,nan,0.000000
2,5,4,0,12867741,19312701,-6915223499785588492,1361355168.202420,-19048,-10404,8316,nan,0.000000
2,5,4,0,12867741,19312701,-6915223499785585871,1361355168.202420,-18672,-8328,4732,nan,0.000000
2,5,4,0,12867741,19312701,-6915223499785583250,1361355168.202420,-15160,-2792,2676,nan,0.000000
1,5,5,0,12949023,19312733,-6914792484114293750,1361355168.202722,-14172,-11592,3572,nan,0.000000
1,5,5,0,12949023,19312733,-6914792484114291129,1361355168.202722,-10724,-4596,2336,nan,0.000000
2,5,6,0,12949023,19312765,-6914792484114288508,1361355168.202881,-11252,-5532,5028,nan,0.000000
2,5,6,0,12949023,19312765,-6914792484114285887,1361355168.202881,-12408,-6380,6504,nan,0.000000
2,5,6,0,12949023,19312765,-6914792484114283266,1361355168.202881,-15108,-6992,6216,nan,0.000000
2,5,6,0,12949023,19312765,-6914792484114280645,1361355168.202881,-14768,-13208,8964,nan,0.000000
2,5,6,0,12949023,19312765,-6914792484114278024,1361355168.202881,-13836,-12640,4728,nan,0.000000
2,5,7,0,12949023,19312797,-6914792484114275403,1361355168.203180,-15556,-3308,4860,nan,0.000000
2,5,7,0,12949023,19312797,-6914792484114272782,1361355168.203180,-15600,-10240,4396,nan,0.000000
2,5,7,0,12949023,19312797,-6914792484114270161,1361355168.203180,-11608,-4064,3648,nan,0.000000
2,5,7,0,12949023,19312797,-6914792484114267540,1361355168.203180,-11432,-4548,2232,nan,0.000000
2,5,7,0,12949023,19312797,-6914792484114264919,1361355168.203180,-11364,-10200,3732,nan,0.000000
2,5,8,0,12949023,19312829,-6914792484114262298,1361355168.203480,-12004,-9576,3744,nan,0.000000
2,5,8,0,12949023,19312829,-6914792484114259677,1361355168.203480,-18744,-10272,9232,nan,0.000000
2,5,8,0,12949023,19312829,-6914792484114257056,1361355168.203480,-16348,-9656,3228,nan,0.000000
2,5,8,0,12949023,19312829,-6914792484114254435,1361355168.203480,-15520,-1340,4540,nan,0.000000
2,5,8,0,12949023,19312829,-6914792484114251814,1361355168.203480,-15484,-2928,4980,nan,0.000000
2,5,9,0,12949023,19312861,-6914792484114249193,1361355168.203802,-12912,-11248,3468,nan,0.000000
2,5,9,0,12949023,19312861,-6914792484114246572,1361355168.203802,-10048,-4204,4476,nan,0.000000
2,5,9,0,12949023,19312861,-6914792484114243951,1361355168.203802,-10932,-5416,5980,nan,0.000000
2,5,9,0,12949023,19312861,-6914792484114241330,1361355168.203802,-13036,-6920,6992,nan,0.000000
2,5,9,0,12949023,19312861,-6914792484114238709,1361355168.203802,-16596,-9652,9244,nan,0.000000
2,5,10,0,12949023,19312893,-6914792484114236088,1361355168.204242,-12168,-14080,6508,nan,0.000000
2,5,10,0,12949023,19312893,-6914792484114233467,1361355168.204242,-16840,-5720,4756,nan,0.000000
2,5,10,0,12949023,19312893,-6914792484114230846,1361355168.204242,-16712,-4868,3976,nan,0.000000
2,5,10,0,12949023,19312893,-6914792484114228225,1361355168.204242,-13520,-8784,5056,nan,0.000000
2,5,10,0,12949023,19312893,-6914792484114225604,1361355168.204242,-12440,-2092,2248,nan,0.000000
2,5,11,0,12949023,19312925,-6914792484114222983,1361355168.204590,-12056,-7468,2932,nan,0.000000
2,5,11,0,12949023,19312925,-6914792484114220362,1361355168.204590,-10832,-10092,2648,nan,0.000000
2,5,11,0,12949023,19312925,-6914792484114217741,1361355168.204590,-13320,-9676,5660,nan,0.000000
2,5,11,0,12949023,19312925,-6914792484114215120,1361355168.204590,-19456,-8712,9648,nan,0.000000
2,5,11,0,12949023,19312925,-6914792484114212499,1361355168.204590,-16076,-7920,1740,nan,0.000000
1,5,12,0,13030306,19312957,6344046683505390603,1361355168.204939,-16936,-8644,2768,nan,0.000000
1,5,12,0,13030306,19312957,6344046683505393224,1361355168.204939,-11788,-7268,3304,nan,0.000000
2,5,13,0,13030306,19312989,6344046683505395845,1361355168.205122,-11396,-4764,4776,nan,0.000000
2,5,13,0,13030306,19312989,6344046683505398466,1361355168.205122,-11508,-6472,5024,nan,0.000000
2,5,13,0,13030306,19312989,6344046683505401087,1361355168.205122,-12912,-6636,7060,nan,0.000000
2,5,13,0,13030306,19312989,6344046683505403708,1361355168.205122,-16404,-7952,8300,nan,0.000000
2,5,13,0,13030306,19312989,6344046683505406329,1361355168.205122,-13808,-14416,6852,nan,0.000000
2,5,14,0,13030306,19313021,6344046683505408950,1361355168.205554,-17496,-7104,5144,nan,0.000000
2,5,14,0,13030306,19313021,6344046683505411571,1361355168.205554,-12684,-3976,2516,nan,0.000000
2,5,14,0,13030306,19313021,6344046683505414192,1361355168.205554,-16036,-8804,3512,nan,0.000000
2,5,14,0,13030306,19313021,6344046683505416813,1361355168.205554,-12396,-4148,4488,nan,0.000000
2,5,14,0,13030306,19313021,6344046683505419434,1361355168.205554,-12748,-5916,2820,nan,0.000000
2,5,15,0,13030306,19313053,6344046683505422055,1361355168.205903,-11948,-8468,2464,nan,0.000000
2,5,15,0,13030306,19313053,6344046683505424676,1361355168.205903,-11780,-9640,3792,nan,0.000000
2,5,15,0,13030306,19313053,6344046683505427297,1361355168.205903,-16816,-9288,8372,nan,0.000000
2,5,15,0,13030306,19313053,6344046683505429918,1361355168.205903,-17128,-9528,6304,nan,0.000000
2,5,15,0,13030306,19313053,6344046683505432539,1361355168.205903,-14764,-6932,2060,nan,0.000000
2,5,0,0,13030306,19313085,6344046683505435160,1361355168.206246,-15684,100,4828,nan,0.000000
2,5,0,0,13030306,19313085,6344046683505437781,1361355168.206246,-14564,-10072,4340,nan,0.000000
2,5,0,0,13030306,19313085,6344046683505440402,1361355168.206246,-10624,-7288,1572,nan,0.000000
2,5,0,0,13030306,19313085,6344046683505443023,1361355168.206246,-11456,-4616,6152,nan,0.000000
2,5,0,0,13030306,19313085,6344046683505445644,1361355168.206246,-11716,-5720,6732,nan,0.000000
2,5,1,0,13030306,19313117,6344046683505448265,1361355168.206566,-12736,-7928,6068,nan,0.000000
2,5,1,0,13030306,19313117,6344046683505450886,1361355168.206566,-16236,-12740,9944,nan,0.000000
2,5,1,0,13030306,19313117,6344046683505453507,1361355168.206566,-15788,-12636,4436,nan,0.000000
2,5,1,0,13030306,19313117,6344046683505456128,1361355168.206566,-13560,-4408,5368,nan,0.000000
2,5,1,0,13030306,19313117,6344046683505458749,1361355168.206566,-15336,-9496,3472,nan,0.000000
2,5,2,0,13030306,19313149,6344046683505461370,1361355168.206867,-11216,-4672,3724,nan,0.000000
2,5,2,0,13030306,19313149,6344046683505463991,1361355168.206867,-10888,-6332,1936,nan,0.000000
2,5,2,0,13030306,19313149,6344046683505466612,1361355168.206867,-11472,-9408,3068,nan,0.000000
2,5,2,0,13030306,19313149,6344046683505469233,1361355168.206867,-13892,-10288,4904,nan,0.000000
2,5,2,0,13030306,19313149,6344046683505471854,1361355168.206867,-16708,-10612,7152,nan,0.000000
1,5,3,0,13111590,19313181,-8068404446455559154,1361355168.207830,-16736,-572,4460,nan,0.000000
1,5,3,0,13111590,19313181,-8068404446455556533,1361355168.207830,-15504,-7144,4072,nan,0.000000
2,5,4,0,13111590,19313213,-8068404446455553912,1361355168.208155,-10060,-10208,808,nan,0.000000
2,5,4,0,13111590,19313213,-8068404446455551291,1361355168.208155,-11012,-4984,4456,nan,0.000000
2,5,4,0,13111590,19313213,-8068404446455548670,1361355168.208155,-12084,-5576,6436,nan,0.000000
2,5,4,0,13111590,19313213,-8068404446455546049,1361355168.208155,-12548,-7468,4980,nan,0.000000
2,5,4,0,13111590,19313213,-8068404446455543428,1361355168.208155,-16984,-11064,8948,nan,0.000000
2,5,5,0,13111590,19313245,-8068404446455540807,1361355168.209975,-14120,-13712,4732,nan,0.000000
2,5,5,0,13111590,19313245,-8068404446455538186,1361355168.209975,-16420,-5204,4404,nan,0.000000
2,5,5,0,13111590,19313245,-8068404446455535565,1361355168.209975,-15616,-8708,3988,nan,0.000000
2,5,5,0,13111590,19313245,-8068404446455532944,1361355168.209975,-12068,-6964,2748,nan,0.000000
2,5,5,0,13111590,19313245,-8068404446455530323,1361355168.209975,-11808,-2672,2600,nan,0.000000
2,5,6,0,13111590,19313277,-8068404446455527702,1361355168.210351,-11616,-7992,2168,nan,0.000000
2,5,6,0,13111590,19313277,-8068404446455525081,1361355168.210351,-11040,-8860,1864,nan,0.000000
2,5,6,0,13111590,19313277,-8068404446455522460,1361355168.210351,-19964,-9708,8028,nan,0.000000
2,5,6,0,13111590,19313277,-8068404446455519839,1361355168.210351,-17896,-8896,5016,nan,0.000000
2,5,6,0,13111590,19313277,-8068404446455517218,1361355168.210351,-14524,-2268,-536,nan,0.000000
2,5,7,0,13111590,19313308,-8068404446455514597,1361355168.213292,-18108,-300,3992,nan,0.000000
2,5,7,0,13111590,19313308,-8068404446455511976,1361355168.213292,-13848,-12604,3164,nan,0.000000
2,5,7,0,13111590,19313308,-8068404446455509355,1361355168.213292,-10452,-3852,2084,nan,0.000000
2,5,7,0,13111590,19313308,-8068404446455506734,1361355168.213292,-11116,-3052,4196,nan,0.000000
2,5,7,0,13111590,19313308,-8068404446455504113,1361355168.213292,-12844,-6880,5036,nan,0.000000
2,5,8,0,13111590,19313341,-8068404446455501492,1361355168.218952,-16960,-7484,7308,nan,0.000000
2,5,8,0,13111590,19313341,-8068404446455498871,1361355168.218952,-15204,-15048,8400,nan,0.000000
2,5,8,0,13111590,19313341,-8068404446455496250,1361355168.218952,-16808,-9960,3288,nan,0.000000
2,5,8,0,13111590,19313341,-8068404446455493629,1361355168.218952,-14104,-4108,1284,nan,0.000000
2,5,8,0,13111590,19313341,-8068404446455491008,1361355168.218952,-15060,-11396,3244,nan,0.000000
2,5,9,0,13111590,19313372,-8068404446455488387,1361355168.225721,-12548,-2732,3524,nan,0.000000
2,5,9,0,13111590,19313372,-8068404446455485766,1361355168.225721,-11144,-4164,672,nan,0.000000
2,5,9,0,13111590,19313372,-8068404446455483145,1361355168.225721,-11504,-9184,2032,nan,0.000000
2,5,9,0,13111590,19313372,-8068404446455480524,1361355168.225721,-13676,-9456,3676,nan,0.000000
2,5,9,0,13111590,19313372,-8068404446455477903,1361355168.225721,-20444,-9196,7664,nan,0.000000
1,5,10,0,13192874,19313405,-6916758340977245171,1361355168.229967,-16856,1436,2924,nan,0.000000
1,5,10,0,13192874,19313405,-6916758340977242550,1361355168.229967,-16712,-7940,3004,nan,0.000000
2,5,11,0,13192874,19313436,-6916758340977239929,1361355168.232185,-10284,-9372,592,nan,0.000000
2,5,11,0,13192874,19313436,-6916758340977237308,1361355168.232185,-11784,-3284,2868,nan,0.000000
2,5,11,0,13192874,19313436,-6916758340977234687,1361355168.232185,-11136,-5260,5376,nan,0.000000
2,5,11,0,13192874,19313436,-6916758340977232066,1361355168.232185,-12076,-7304,3108,nan,0.000000
2,5,11,0,13192874,19313436,-6916758340977229445,1361355168.232185,-18456,-11672,11516,nan,0.000000
2,5,12,0,13192874,19313468,-6916758340977226824,1361355168.233179,-12784,-14736,3132,nan,0.000000
2,5,12,0,13192874,19313468,-6916758340977224203,1361355168.233179,-18388,-3224,3408,nan,0.000000
2,5,12,0,13192874,19313468,-6916758340977221582,1361355168.233179,-17204,-7464,4420,nan,0.000000
2,5,12,0,13192874,19313468,-6916758340977218961,1361355168.233179,-12756,-5992,3348,nan,0.000000
2,5,12,0,13192874,19313468,-6916758340977216340,1361355168.233179,-11480,-3600,1188,nan,0.000000
2,5,13,0,13192874,19313500,-6916758340977213719,1361355168.257998,-11232,-8488,2420,nan,0.000000
2,5,13,0,13192874,19313500,-6916758340977211098,1361355168.257998,-12064,-7340,2468,nan,0.000000
2,5,13,0,13192874,19313500,-6916758340977208477,1361355168.257998,-18772,-9292,7348,nan,0.000000
2,5,13,0,13192874,19313500,-6916758340977205856,1361355168.257998,-17868,-8076,4404,nan,0.000000
2,5,13,0,13192874,19313500,-6916758340977203235,1361355168.257998,-17008,52,3392,nan,0.000000
2,5,14,0,13192874,19313532,-6916758340977200614,1361355168.259520,-18956,-120,2784,nan,0.000000
2,5,14,0,13192874,19313532,-6916758340977197993,1361355168.259520,-13196,-14364,3000,nan,0.000000
2,5,14,0,13192874,19313532,-6916758340977195372,1361355168.259520,-10176,-2524,2304,nan,0.000000
2,5,14,0,13192874,19313532,-6916758340977192751,1361355168.259520,-11372,-4212,6492,nan,0.000000
2,5,14,0,13192874,19313532,-6916758340977190130,1361355168.259520,-11772,-7060,5024,nan,0.000000
2,5,15,0,13192874,19313564,-6916758340977187509,1361355168.263407,-15708,-8256,8104,nan,0.000000
2,5,15,0,13192874,19313564,-6916758340977184888,1361355168.263407,-15236,-13148,8332,nan,0.000000
2,5,15,0,13192874,19313564,-6916758340977182267,1361355168.263407,-17512,-7528,4492,nan,0.000000
2,5,15,0,13192874,19313564,-6916758340977179646,1361355168.263407,-13440,-2952,3200,nan,0.000000
2,5,15,0,13192874,19313564,-6916758340977177025,1361355168.263407,-17508,-8268,3000,nan,0.000000
2,5,0,0,13192874,19313596,-6916758340977174404,1361355168.267113,-12056,-3268,2720,nan,0.000000
2,5,0,0,13192874,19313596,-6916758340977171783,1361355168.267113,-14384,-4268,2304,nan,0.000000
2,5,0,0,13192874,19313596,-6916758340977169162,1361355168.267113,-11300,-9728,1528,nan,0.000000
2,5,0,0,13192874,19313596,-6916758340977166541,1361355168.267113,-11524,-9132,1904,nan,0.000000
2,5,0,0,13192874,19313596,-6916758340977163920,1361355168.267113,-20780,-9928,9180,nan,0.000000
1,5,1,0,13274158,19313628,2626663767056394,1361355168.269868,-16136,1248,2692,nan,0.000000
1,5,1,0,13274158,19313628,2626663767059015,1361355168.269868,-16144,-2404,1252,nan,0.000000
2,5,2,0,13274158,19313660,2626663767061636,1361355168.277580,-11460,-10748,1556,nan,0.000000
2,5,2,0,13274158,19313660,2626663767064257,1361355168.277580,-9564,-3724,2148,nan,0.000000
2,5,2,0,13274158,19313660,2626663767066878,1361355168.277580,-13816,-4968,6048,nan,0.000000
2,5,2,0,13274158,19313660,2626663767069499,1361355168.277580,-12668,-7572,6136,nan,0.000000
2,5,2,0,13274158,19313660,2626663767072120,1361355168.277580,-17256,-9384,6456,nan,0.000000
2,5,3,0,13274158,19313692,2626663767074741,1361355168.280543,-14364,-15088,7460,nan,0.000000
2,5,3,0,13274158,19313692,2626663767077362,1361355168.280543,-14820,-7412,972,nan,0.000000
2,5,3,0,13274158,19313692,2626663767079983,1361355168.280543,-16788,-5940,3920,nan,0.000000
2,5,3,0,13274158,19313692,2626663767082604,1361355168.280543,-13852,-8716,3824,nan,0.000000
2,5,3,0,13274158,19313692,2626663767085225,1361355168.280543,-12448,-1724,2152,nan,0.000000
2,5,4,0,13274158,19313724,2626663767087846,1361355168.282964,-11076,-6812,1924,nan,0.000000
2,5,4,0,13274158,19313724,2626663767090467,1361355168.282964,-11056,-9260,2392,nan,0.000000
2,5,4,0,13274158,19313724,2626663767093088,1361355168.282964,-16336,-10236,5524,nan,0.000000
2,5,4,0,13274158,19313724,2626663767095709,1361355168.282964,-20928,-8060,8292,nan,0.000000
2,5,4,0,13274158,19313724,2626663767098330,1361355168.282964,-16276,-2608,-228,nan,0.000000
2,5,5,0,13274158,19313756,2626663767100951,1361355168.285364,-16260,3856,3932,nan,0.000000
2,5,5,0,13274158,19313756,2626663767103572,1361355168.285364,-16628,-11992,2380,nan,0.000000
2,5,5,0,13274158,19313756,2626663767106193,1361355168.285364,-9156,-4984,1016,nan,0.000000
2,5,5,0,13274158,19313756,2626663767108814,1361355168.285364,-13024,-3936,5256,nan,0.000000
2,5,5,0,13274158,19313756,2626663767111435,1361355168.285364,-13284,-5336,6300,nan,0.000000
2,5,6,0,13274158,19313788,2626663767114056,1361355168.288204,-15008,-7192,6432,nan,0.000000
2,5,6,0,13274158,19313788,2626663767116677,1361355168.288204,-15616,-13292,6984,nan,0.000000
2,5,6,0,13274158,19313788,2626663767119298,1361355168.288204,-14856,-10360,3868,nan,0.000000
2,5,6,0,13274158,19313788,2626663767121919,1361355168.288204,-17632,-3100,2948,nan,0.000000
2,5,6,0,13274158,19313788,2626663767124540,1361355168.288204,-16096,-10336,4432,nan,0.000000
2,5,7,0,13274158,19313820,2626663767127161,1361355168.291941,-11652,-3912,2664,nan,0.000000
2,5,7,0,13274158,19313820,2626663767129782,1361355168.291941,-11556,-2768,1528,nan,0.000000
2,5,7,0,13274158,19313820,2626663767132403,1361355168.291941,-12348,-10208,2796,nan,0.000000
2,5,7,0,13274158,19313820,2626663767135024,1361355168.291941,-11300,-10476,2464,nan,0.000000
2,5,7,0,13274158,19313820,2626663767137645,1361355168.291941,-19760,-10828,9436,nan,0.000000
1,5,8,0,13355439,19313852,-574999544889972726,1361355168.296409,-15728,1484,3644,nan,0.000000
1,5,8,0,13355439,19313852,-574999544889970105,1361355168.296409,-17644,-1972,3144,nan,0.000000
2,5,9,0,13355439,19313884,-574999544889967484,1361355168.299826,-11868,-10280,2276,nan,0.000000
2,5,9,0,13355439,19313884,-574999544889964863,1361355168.299826,-9232,-3028,2392,nan,0.000000
2,5,9,0,13355439,19313884,-574999544889962242,1361355168.299826,-13744,-4688,5272,nan,0.000000
2,5,9,0,13355439,19313884,-574999544889959621,1361355168.299826,-13776,-8092,5824,nan,0.000000
2,5,9,0,13355439,19313884,-574999544889957000,1361355168.299826,-18772,-9876,7292,nan,0.000000
2,5,10,0,13355439,19313916,-574999544889954379,1361355168.305089,-16516,-14336,3220,nan,0.000000
2,5,10,0,13355439,19313916,-574999544889951758,1361355168.305089,-16004,-5092,452,nan,0.000000
2,5,10,0,13355439,19313916,-574999544889949137,1361355168.305089,-16564,-8244,3076,nan,0.000000
2,5,10,0,13355439,19313916,-574999544889946516,1361355168.305089,-11852,-4200,1952,nan,0.000000
2,5,10,0,13355439,19313916,-574999544889943895,1361355168.305089,-12196,-2036,1156,nan,0.000000
2,5,11,0,13355439,19313948,-574999544889941274,1361355168.307525,-11440,-8488,2100,nan,0.000000
2,5,11,0,13355439,19313948,-574999544889938653,1361355168.307525,-11756,-8804,1828,nan,0.000000
2,5,11,0,13355439,19313948,-574999544889936032,1361355168.307525,-19560,-10100,7484,nan,0.000000
2,5,11,0,13355439,19313948,-574999544889933411,1361355168.307525,-19864,-7392,5332,nan,0.000000
2,5,11,0,13355439,19313948,-574999544889930790,1361355168.307525,-15164,-1940,268,nan,0.000000
2,5,12,0,13355439,19313980,-574999544889928169,1361355168.309959,-17224,-832,2488,nan,0.000000
2,5,12,0,13355439,19313980,-574999544889925548,1361355168.309959,-12656,-12016,3148,nan,0.000000
2,5,12,0,13355439,19313980,-574999544889922927,1361355168.309959,-9748,-3548,1468,nan,0.000000
2,5,12,0,13355439,19313980,-574999544889920306,1361355168.309959,-12204,-3844,5176,nan,0.000000
2,5,12,0,13355439,19313980,-574999544889917685,1361355168.309959,-13068,-7124,6444,nan,0.000000
2,5,13,0,13355439,19314012,-574999544889915064,1361355168.316352,-17716,-8244,6704,nan,0.000000
2,5,13,0,13355439,19314012,-574999544889912443,1361355168.316352,-14284,-14784,8388,nan,0.000000
2,5,13,0,13355439,19314012,-574999544889909822,1361355168.316352,-15196,-10160,896,nan,0.000000
2,5,13,0,13355439,19314012,-574999544889907201,1361355168.316352,-15848,-4268,1192,nan,0.000000
2,5,13,0,13355439,19314012,-574999544889904580,1361355168.316352,-13560,-9572,3704,nan,0.000000
2,5,14,0,13355439,19314044,-574999544889901959,1361355168.318876,-10924,-2600,936,nan,0.000000
2,5,14,0,13355439,19314044,-574999544889899338,1361355168.318876,-11536,-6048,1732,nan,0.000000
2,5,14,0,13355439,19314044,-574999544889896717,1361355168.318876,-12992,-9184,3460,nan,0.000000
2,5,14,0,13355439,19314044,-574999544889894096,1361355168.318876,-16720,-11088,4340,nan,0.000000
2,5,14,0,13355439,19314044,-574999544889891475,1361355168.318876,-20688,-8112,6368,nan,0.000000
1,5,15,0,13436721,19314076,-4321660238826395645,1361355168.320621,-18012,936,5196,nan,0.000000
1,5,15,0,13436721,19314076,-4321660238826393024,1361355168.320621,-13620,-11576,2572,nan,0.000000
2,5,0,0,13436721,19314108,-4321660238826390403,1361355168.321522,-9440,-3540,948,nan,0.000000
2,5,0,0,13436721,19314108,-4321660238826387782,1361355168.321522,-12136,-3088,4624,nan,0.000000
2,5,0,0,13436721,19314108,-4321660238826385161,1361355168.321522,-13424,-5784,6008,nan,0.000000
2,5,0,0,13436721,19314108,-4321660238826382540,1361355168.321522,-18788,-8724,6668,nan,0.000000
2,5,0,0,13436721,19314108,-4321660238826379919,1361355168.321522,-14464,-14640,5932,nan,0.000000
2,5,1,0,13436721,19314140,-4321660238826377298,1361355168.324061,-16176,-8012,1096,nan,0.000000
2,5,1,0,13436721,19314140,-4321660238826374677,1361355168.324061,-16824,-5144,2232,nan,0.000000
2,5,1,0,13436721,19314140,-4321660238826372056,1361355168.324061,-13880,-8588,3132,nan,0.000000
2,5,1,0,13436721,19314140,-4321660238826369435,1361355168.324061,-12008,-1748,1896,nan,0.000000
2,5,1,0,13436721,19314140,-4321660238826366814,1361355168.324061,-10348,-6720,1728,nan,0.000000
2,5,2,0,13436721,19314172,-4321660238826364193,1361355168.326399,-11340,-7916,2492,nan,0.000000
2,5,2,0,13436721,19314172,-4321660238826361572,1361355168.326399,-19824,-9012,7136,nan,0.000000
2,5,2,0,13436721,19314172,-4321660238826358951,1361355168.326399,-20948,-7620,3088,nan,0.000000
2,5,2,0,13436721,19314172,-4321660238826356330,1361355168.326399,-15836,-220,2424,nan,0.000000
2,5,2,0,13436721,19314172,-4321660238826353709,1361355168.326399,-17468,-5524,4068,nan,0.000000
2,5,3,0,13436721,19314204,-4321660238826351088,1361355168.330565,-10192,-7480,1304,nan,0.000000
2,5,3,0,13436721,19314204,-4321660238826348467,1361355168.330565,-8988,-3536,3044,nan,0.000000
2,5,3,0,13436721,19314204,-4321660238826345846,1361355168.330565,-12564,-5220,5360,nan,0.000000
2,5,3,0,13436721,19314204,-4321660238826343225,1361355168.330565,-15536,-8876,6168,nan,0.000000
2,5,3,0,13436721,19314204,-4321660238826340604,1361355168.330565,-17844,-11020,8476,nan,0.000000
2,5,4,0,13436721,19314236,-4321660238826337983,1361355168.334420,-14900,-12916,224,nan,0.000000
2,5,4,0,13436721,19314236,-4321660238826335362,1361355168.334420,-17608,-4928,-304,nan,0.000000
2,5,4,0,13436721,19314236,-4321660238826332741,1361355168.334420,-15384,-9264,3964,nan,0.000000
2,5,4,0,13436721,19314236,-4321660238826330120,1361355168.334420,-12340,-3004,1940,nan,0.000000
2,5,4,0,13436721,19314236,-4321660238826327499,1361355168.334420,-9912,-5036,48,nan,0.000000
2,5,5,0,13436721,19314268,-4321660238826324878,1361355168.336128,-11048,-7616,2352,nan,0.000000
2,5,5,0,13436721,19314268,-4321660238826322257,1361355168.336128,-17064,-9176,4660,nan,0.000000
2,5,5,0,13436721,19314268,-4321660238826319636,1361355168.336128,-19500,-8504,6756,nan,0.000000
2,5,5,0,13436721,19314268,-4321660238826317015,1361355168.336128,-15916,-5268,-584,nan,0.000000
2,5,5,0,13436721,19314268,-4321660238826314394,1361355168.336128,-19916,-2168,4064,nan,0.000000
1,5,6,0,13518002,19314300,3752106366399754249,1361355168.339043,-8452,-4904,1104,nan,0.000000
1,5,6,0,13518002,19314300,3752106366399756870,1361355168.339043,-13264,-4476,4632,nan,0.000000
2,5,7,0,13518002,19314332,3752106366399759491,1361355168.340436,-12156,-5548,4820,nan,0.000000
2,5,7,0,13518002,19314332,3752106366399762112,1361355168.340436,-16952,-7288,6468,nan,0.000000
2,5,7,0,13518002,19314332,3752106366399764733,1361355168.340436,-15456,-12372,6776,nan,0.000000
2,5,7,0,13518002,19314332,3752106366399767354,1361355168.340436,-14876,-12820,1588,nan,0.000000
2,5,7,0,13518002,19314332,3752106366399769975,1361355168.340436,-16144,-4200,768,nan,0.000000
2,5,8,0,13518002,19314364,3752106366399772596,1361355168.344876,-15128,-8428,3268,nan,0.000000
2,5,8,0,13518002,19314364,3752106366399775217,1361355168.344876,-12752,-3148,2264,nan,0.000000
2,5,8,0,13518002,19314364,3752106366399777838,1361355168.344876,-11404,-7492,1420,nan,0.000000
2,5,8,0,13518002,19314364,3752106366399780459,1361355168.344876,-11692,-7524,2468,nan,0.000000
2,5,8,0,13518002,19314364,3752106366399783080,1361355168.344876,-15240,-8472,3744,nan,0.000000
2,5,9,0,13518002,19314396,3752106366399785701,1361355168.346662,-18456,-9748,6856,nan,0.000000
2,5,9,0,13518002,19314396,3752106366399788322,1361355168.346662,-18128,-7916,1864,nan,0.000000
2,5,9,0,13518002,19314396,3752106366399790943,1361355168.346662,-14340,-908,2056,nan,0.000000
2,5,9,0,13518002,19314396,3752106366399793564,1361355168.346662,-17344,-7284,4696,nan,0.000000
2,5,9,0,13518002,19314396,3752106366399796185,1361355168.346662,-10212,-8708,1320,nan,0.000000
2,5,10,0,13518002,19314428,3752106366399798806,1361355168.352311,-12344,-4588,4088,nan,0.000000
2,5,10,0,13518002,19314428,3752106366399801427,1361355168.352311,-12336,-4844,4684,nan,0.000000
2,5,10,0,13518002,19314428,3752106366399804048,1361355168.352311,-12708,-6872,5072,nan,0.000000
2,5,10,0,13518002,19314428,3752106366399806669,1361355168.352311,-17052,-7272,7628,nan,0.000000
2,5,10,0,13518002,19314428,3752106366399809290,1361355168.352311,-13920,-14324,7888,nan,0.000000
2,5,11,0,13518002,19314460,3752106366399811911,1361355168.353407,-15656,-9188,2708,nan,0.000000
2,5,11,0,13518002,19314460,3752106366399814532,1361355168.353407,-13796,-5868,2476,nan,0.000000
2,5,11,0,13518002,19314460,3752106366399817153,1361355168.353407,-14696,-10228,4296,nan,0.000000
2,5,11,0,13518002,19314460,3752106366399819774,1361355168.353407,-12668,-3324,3388,nan,0.000000
2,5,11,0,13518002,19314460,3752106366399822395,1361355168.353407,-11184,-6996,1980,nan,0.000000
2,5,12,0,13518002,19314492,3752106366399825016,1361355170.652141,-11824,-7760,2824,nan,0.000000
2,5,12,0,13518002,19314492,3752106366399827637,1361355170.652141,-14432,-8152,4120,nan,0.000000
2,5,12,0,13518002,19314492,3752106366399830258,1361355170.652141,-19520,-10284,8244,nan,0.000000
2,5,12,0,13518002,19314492,3752106366399832879,1361355170.652141,-17460,-6948,2000,nan,0.000000
2,5,12,0,13518002,19314492,3752106366399835500,1361355170.652141,-14580,664,2216,nan,0.000000
1,5,13,0,13599284,19393347,1733930801772824587,1361355170.653816,-10844,-7956,1112,nan,0.000000
1,5,13,1,13599284,19393347,1733930801772827208,1361355170.653816,-12068,-3880,3932,nan,0.000000
2,5,14,1,13599284,19393379,1733930801772829829,1361355170.654329,-12204,-4732,5640,nan,0.000000
2,5,14,1,13599284,19393379,1733930801772832450,1361355170.654329,-14356,-6324,5916,nan,0.000000
2,5,14,1,13599284,19393379,1733930801772835071,1361355170.654329,-17076,-9076,7712,nan,0.000000
2,5,14,1,13599284,19393379,1733930801772837692,1361355170.654329,-13540,-15004,6136,nan,0.000000
2,5,14,1,13599284,19393379,1733930801772840313,1361355170.654329,-17044,-5844,2568,nan,0.000000
2,5,15,1,13599284,19393410,1733930801772842934,1361355170.655810,-13712,-6408,2864,nan,0.000000
2,5,15,1,13599284,19393410,1733930801772845555,1361355170.655810,-15176,-7428,3692,nan,0.000000
2,5,15,1,13599284,19393410,1733930801772848176,1361355170.655810,-11692,-2164,1932,nan,0.000000
2,5,15,1,13599284,19393410,1733930801772850797,1361355170.655810,-11920,-8692,2524,nan,0.000000
2,5,15,1,13599284,19393410,1733930801772853418,1361355170.655810,-11132,-7368,3400,nan,0.000000
2,5,0,1,13599284,19393443,1733930801772856039,1361355170.656570,-17408,-9576,5896,nan,0.000000
2,5,0,1,13599284,19393443,1733930801772858660,1361355170.656570,-19108,-9104,6144,nan,0.000000
2,5,0,1,13599284,19393443,1733930801772861281,1361355170.656570,-16624,-3856,1632,nan,0.000000
2,5,0,1,13599284,19393443,1733930801772863902,1361355170.656570,-15036,-584,3036,nan,0.000000
2,5,0,1,13599284,19393443,1733930801772866523,1361355170.656570,-15160,-11116,3700,nan,0.000000
2,5,1,1,13599284,19393474,1733930801772869144,1361355170.657749,-10520,-5332,2376,nan,0.000000
2,5,1,1,13599284,19393474,1733930801772871765,1361355170.657749,-11528,-4080,4332,nan,0.000000
2,5,1,1,13599284,19393474,1733930801772874386,1361355170.657749,-12588,-5440,5772,nan,0.000000
2,5,1,1,13599284,19393474,1733930801772877007,1361355170.657749,-15284,-7428,5960,nan,0.000000
2,5,1,1,13599284,19393474,1733930801772879628,1361355170.657749,-16076,-11592,8804,nan,0.000000
2,5,2,1,13599284,19393507,1733930801772882249,1361355170.658630,-13412,-13104,3732,nan,0.000000
2,5,2,1,13599284,19393507,1733930801772884870,1361355170.658630,-16216,-4444,2636,nan,0.000000
2,5,2,1,13599284,19393507,1733930801772887491,1361355170.658630,-15188,-9616,2680,nan,0.000000
2,5,2,1,13599284,19393507,1733930801772890112,1361355170.658630,-13492,-5444,5040,nan,0.000000
2,5,2,1,13599284,19393507,1733930801772892733,1361355170.658630,-12436,-2964,1680,nan,0.000000
2,5,3,1,13599284,19393538,1733930801772895354,1361355173.138023,-11356,-8892,2680,nan,0.000000
2,5,3,1,13599284,19393538,1733930801772897975,1361355173.138023,-11508,-7920,3944,nan,0.000000
2,5,3,1,13599284,19393538,1733930801772900596,1361355173.138023,-18408,-8636,7476,nan,0.000000
2,5,3,1,13599284,19393538,1733930801772903217,1361355173.138023,-18888,-7944,6248,nan,0.000000
2,5,3,1,13599284,19393538,1733930801772905838,1361355173.138023,-14672,-2812,1188,nan,0.000000
1,5,4,0,13680566,19474793,7498230463364036618,1361355173.139731,-13832,-13164,4036,nan,0.000000
1,5,4,0,13680566,19474793,7498230463364039239,1361355173.139731,-10504,-5392,2588,nan,0.000000
2,5,5,0,13680566,19474825,7498230463364041860,1361355173.140206,-12624,-4784,5792,nan,0.000000
2,5,5,0,13680566,19474825,7498230463364044481,1361355173.140206,-11732,-6468,5116,nan,0.000000
2,5,5,0,13680566,19474825,7498230463364047102,1361355173.140206,-14968,-7044,6292,nan,0.000000
2,5,5,0,13680566,19474825,7498230463364049723,1361355173.140206,-15248,-10980,8772,nan,0.000000
2,5,5,0,13680566,19474825,7498230463364052344,1361355173.140206,-12948,-12936,5276,nan,0.000000
2,5,6,0,13680566,19474868,7498230463364054965,1361355173.141699,-16112,-5324,3524,nan,0.000000
2,5,6,0,13680566,19474868,7498230463364057586,1361355173.141699,-14740,-7848,3060,nan,0.000000
2,5,6,0,13680566,19474868,7498230463364060207,1361355173.141699,-14076,-6760,5224,nan,0.000000
2,5,6,0,13680566,19474868,7498230463364062828,1361355173.141699,-12136,-3544,2268,nan,0.000000
2,5,6,0,13680566,19474868,7498230463364065449,1361355173.141699,-11800,-8280,2656,nan,0.000000
2,5,7,0,13680566,19474900,7498230463364068070,1361355173.142652,-12812,-7552,4228,nan,0.000000
2,5,7,0,13680566,19474900,7498230463364070691,1361355173.142652,-14780,-9148,5392,nan,0.000000
2,5,7,0,13680566,19474900,7498230463364073312,1361355173.142652,-18044,-8508,8120,nan,0.000000
2,5,7,0,13680566,19474900,7498230463364075933,1361355173.142652,-16632,-6912,3536,nan,0.000000
2,5,7,0,13680566,19474900,7498230463364078554,1361355173.142652,-14776,-2320,2352,nan,0.000000
2,5,8,0,13680566,19474932,7498230463364081175,1361355173.143686,-15324,-2204,5464,nan,0.000000
2,5,8,0,13680566,19474932,7498230463364083796,1361355173.143686,-14496,-9452,3836,nan,0.000000
2,5,8,0,13680566,19474932,7498230463364086417,1361355173.143686,-10292,-4504,3272,nan,0.000000
2,5,8,0,13680566,19474932,7498230463364089038,1361355173.143686,-13432,-5076,6536,nan,0.000000
2,5,8,0,13680566,19474932,7498230463364091659,1361355173.143686,-13320,-5808,6456,nan,0.000000
2,5,9,0,13680566,19474964,7498230463364094280,1361355173.145741,-14096,-6940,5880,nan,0.000000
2,5,9,0,13680566,19474964,7498230463364096901,1361355173.145741,-15456,-12724,8732,nan,0.000000
2,5,9,0,13680566,19474964,7498230463364099522,1361355173.145741,-16340,-10936,5396,nan,0.000000
2,5,9,0,13680566,19474964,7498230463364102143,1361355173.145741,-14240,-2544,3856,nan,0.000000
2,5,9,0,13680566,19474964,7498230463364104764,1361355173.145741,-15132,-8368,2112,nan,0.000000
2,5,10,0,13680566,19474996,7498230463364107385,1361355175.616015,-12624,-5836,5524,nan,0.000000
2,5,10,0,13680566,19474996,7498230463364110006,1361355175.616015,-14672,-2972,2336,nan,0.000000
2,5,10,0,13680566,19474996,7498230463364112627,1361355175.616015,-13188,-8788,3324,nan,0.000000
2,5,10,0,13680566,19474996,7498230463364115248,1361355175.616015,-10768,-9436,3448,nan,0.000000
2,5,10,0,13680566,19474996,7498230463364117869,1361355175.616015,-13776,-8200,4536,nan,0.000000
1,5,11,0,13761848,19555939,2308487286104691733,1361355175.617180,-17160,-8128,3100,nan,0.000000
1,5,11,0,13761848,19555939,2308487286104694354,1361355175.617180,-16408,-828,3952,nan,0.000000
2,5,12,0,13761848,19555971,2308487286104696975,1361355175.617884,-13756,-968,1848,nan,0.000000
2,5,12,0,13761848,19555971,2308487286104699596,1361355175.617884,-15280,-9892,4644,nan,0.000000
2,5,12,0,13761848,19555971,2308487286104702217,1361355175.617884,-11276,-5304,2712,nan,0.000000
2,5,12,0,13761848,19555971,2308487286104704838,1361355175.617884,-13024,-5320,5568,nan,0.000000
2,5,12,0,13761848,19555971,2308487286104707459,1361355175.617884,-12560,-6100,7104,nan,0.000000
2,5,13,0,13761848,19556003,2308487286104710080,1361355175.618771,-12544,-6468,5872,nan,0.000000
2,5,13,0,13761848,19556003,2308487286104712701,1361355175.618771,-15328,-10692,8040,nan,0.000000
2,5,13,0,13761848,19556003,2308487286104715322,1361355175.618771,-14748,-13396,5756,nan,0.000000
2,5,13,0,13761848,19556003,2308487286104717943,1361355175.618771,-16584,-4236,5508,nan,0.000000
2,5,13,0,13761848,19556003,2308487286104720564,1361355175.618771,-13356,-3780,2304,nan,0.000000
2,5,14,0,13761848,19556034,2308487286104723185,1361355175.619546,-16432,-7876,5444,nan,0.000000
2,5,14,0,13761848,19556034,2308487286104725806,1361355175.619546,-13408,-3692,2900,nan,0.000000
2,5,14,0,13761848,19556034,2308487286104728427,1361355175.619546,-14268,-7476,3756,nan,0.000000
2,5,14,0,13761848,19556034,2308487286104731048,1361355175.619546,-11752,-10204,3428,nan,0.000000
2,5,14,0,13761848,19556034,2308487286104733669,1361355175.619546,-12728,-8296,4252,nan,0.000000
2,5,15,0,13761848,19556066,2308487286104736290,1361355175.620612,-13912,-8664,6148,nan,0.000000
2,5,15,0,13761848,19556066,2308487286104738911,1361355175.620612,-15488,-10464,5872,nan,0.000000
2,5,15,0,13761848,19556066,2308487286104741532,1361355175.620612,-16080,-7552,5004,nan,0.000000
2,5,15,0,13761848,19556066,2308487286104744153,1361355175.620612,-14364,-352,4608,nan,0.000000
2,5,15,0,13761848,19556066,2308487286104746774,1361355175.620612,-14904,-3816,3796,nan,0.000000
2,5,0,0,13761848,19556099,2308487286104749395,1361355175.621475,-14388,-9028,4576,nan,0.000000
2,5,0,0,13761848,19556099,2308487286104752016,1361355175.621475,-12048,-4692,4884,nan,0.000000
2,5,0,0,13761848,19556099,2308487286104754637,1361355175.621475,-13264,-5744,6660,nan,0.000000
2,5,0,0,13761848,19556099,2308487286104757258,1361355175.621475,-12044,-6692,5464,nan,0.000000
2,5,0,0,13761848,19556099,2308487286104759879,1361355175.621475,-13304,-6384,5776,nan,0.000000
2,5,1,0,13761848,19556130,2308487286104762500,1361355178.095977,-15780,-10712,9016,nan,0.000000
2,5,1,0,13761848,19556130,2308487286104765121,1361355178.095977,-16004,-11896,7048,nan,0.000000
2,5,1,0,13761848,19556130,2308487286104767742,1361355178.095977,-15616,-5588,5352,nan,0.000000
2,5,1,0,13761848,19556130,2308487286104770363,1361355178.095977,-11244,-5060,1656,nan,0.000000
2,5,1,0,13761848,19556130,2308487286104772984,1361355178.095977,-16144,-7984,3324,nan,0.000000
1,5,2,0,13843131,19637205,-8639161026857584605,1361355178.097129,-13332,-7916,3336,nan,0.000000
1,5,2,0,13843131,19637205,-8639161026857581984,1361355178.097129,-10304,-9780,2276,nan,0.000000
2,5,3,0,13843131,19637237,-8639161026857579363,1361355178.097732,-11212,-9212,3440,nan,0.000000
2,5,3,0,13843131,19637237,-8639161026857576742,1361355178.097732,-16148,-8740,5868,nan,0.000000
2,5,3,0,13843131,19637237,-8639161026857574121,1361355178.097732,-17600,-11600,6960,nan,0.000000
2,5,3,0,13843131,19637237,-8639161026857571500,1361355178.097732,-17788,-7172,2204,nan,0.000000
2,5,3,0,13843131,19637237,-8639161026857568879,1361355178.097732,-13364,-324,2604,nan,0.000000
2,5,4,0,13843131,19637269,-8639161026857566258,1361355178.098606,-16232,-7148,2920,nan,0.000000
2,5,4,0,13843131,19637269,-8639161026857563637,1361355178.098606,-12176,-8824,2828,nan,0.000000
2,5,4,0,13843131,19637269,-8639161026857561016,1361355178.098606,-10836,-3964,2028,nan,0.000000
2,5,4,0,13843131,19637269,-8639161026857558395,1361355178.098606,-12672,-5856,5996,nan,0.000000
2,5,4,0,13843131,19637269,-8639161026857555774,1361355178.098606,-13312,-6480,5156,nan,0.000000
2,5,5,0,13843131,19637301,-8639161026857553153,1361355178.099593,-17020,-10200,6232,nan,0.000000
2,5,5,0,13843131,19637301,-8639161026857550532,1361355178.099593,-12952,-14892,5012,nan,0.000000
2,5,5,0,13843131,19637301,-8639161026857547911,1361355178.099593,-17108,-6828,3484,nan,0.000000
2,5,5,0,13843131,19637301,-8639161026857545290,1361355178.099593,-14864,-4208,1372,nan,0.000000
2,5,5,0,13843131,19637301,-8639161026857542669,1361355178.099593,-15208,-9572,3204,nan,0.000000
2,5,6,0,13843131,19637333,-8639161026857540048,1361355178.100770,-12224,-2992,1576,nan,0.000000
2,5,6,0,13843131,19637333,-8639161026857537427,1361355178.100770,-11948,-5856,1668,nan,0.000000
2,5,6,0,13843131,19637333,-8639161026857534806,1361355178.100770,-11304,-8616,2436,nan,0.000000
2,5,6,0,13843131,19637333,-8639161026857532185,1361355178.100770,-13416,-9876,3432,nan,0.000000
2,5,6,0,13843131,19637333,-8639161026857529564,1361355178.100770,-21932,-9848,9116,nan,0.000000
2,5,7,0,13843131,19637365,-8639161026857526943,1361355178.101610,-16460,-7032,-1024,nan,0.000000
2,5,7,0,13843131,19637365,-8639161026857524322,1361355178.101610,-16864,2396,3256,nan,0.000000
2,5,7,0,13843131,19637365,-8639161026857521701,1361355178.101610,-15792,-6656,1928,nan,0.000000
2,5,7,0,13843131,19637365,-8639161026857519080,1361355178.101610,-11500,-9676,2132,nan,0.000000
2,5,7,0,13843131,19637365,-8639161026857516459,1361355178.101610,-10744,-3876,2632,nan,0.000000
2,5,8,0,13843131,19637397,-8639161026857513838,1361355180.575900,-12532,-5408,5596,nan,0.000000
2,5,8,0,13843131,19637397,-8639161026857511217,1361355180.575900,-13108,-6568,5004,nan,0.000000
2,5,8,0,13843131,19637397,-8639161026857508596,1361355180.575900,-18372,-10440,9360,nan,0.000000
2,5,8,0,13843131,19637397,-8639161026857505975,1361355180.575900,-13652,-14540,6640,nan,0.000000
2,5,8,0,13843131,19637397,-8639161026857503354,1361355180.575900,-14640,-5292,3528,nan,0.000000
1,5,9,0,13924413,19718493,-8353235135540437995,1361355180.577643,-13508,-7028,3932,nan,0.000000
1,5,9,0,13924413,19718493,-8353235135540435374,1361355180.577643,-10916,-3284,2672,nan,0.000000
2,5,10,0,13924413,19718524,-8353235135540432753,1361355180.578033,-12380,-8716,3516,nan,0.000000
2,5,10,0,13924413,19718524,-8353235135540430132,1361355180.578033,-10652,-8652,2684,nan,0.000000
2,5,10,0,13924413,19718524,-8353235135540427511,1361355180.578033,-15624,-10360,6608,nan,0.000000
2,5,10,0,13924413,19718524,-8353235135540424890,1361355180.578033,-18068,-13208,6160,nan,0.000000
2,5,10,0,13924413,19718524,-8353235135540422269,1361355180.578033,-15864,-3744,3092,nan,0.000000
2,5,11,0,13924413,19718556,-8353235135540419648,1361355180.578975,-16928,168,6188,nan,0.000000
2,5,11,0,13924413,19718556,-8353235135540417027,1361355180.578975,-13812,-12916,3736,nan,0.000000
2,5,11,0,13924413,19718556,-8353235135540414406,1361355180.578975,-9632,-4248,1612,nan,0.000000
2,5,11,0,13924413,19718556,-8353235135540411785,1361355180.578975,-11272,-4068,6500,nan,0.000000
2,5,11,0,13924413,19718556,-8353235135540409164,1361355180.578975,-11236,-6184,5712,nan,0.000000
2,5,12,0,13924413,19718588,-8353235135540406543,1361355180.579815,-15448,-9048,6576,nan,0.000000
2,5,12,0,13924413,19718588,-8353235135540403922,1361355180.579815,-13496,-14052,10432,nan,0.000000
2,5,12,0,13924413,19718588,-8353235135540401301,1361355180.579815,-13180,-11812,4268,nan,0.000000
2,5,12,0,13924413,19718588,-8353235135540398680,1361355180.579815,-16536,-4904,5064,nan,0.000000
2,5,12,0,13924413,19718588,-8353235135540396059,1361355180.579815,-13568,-10488,4276,nan,0.000000
2,5,13,0,13924413,19718620,-8353235135540393438,1361355180.580532,-12456,-5128,3580,nan,0.000000
2,5,13,0,13924413,19718620,-8353235135540390817,1361355180.580532,-10748,-4528,1936,nan,0.000000
2,5,13,0,13924413,19718620,-8353235135540388196,1361355180.580532,-11436,-9984,2984,nan,0.000000
2,5,13,0,13924413,19718620,-8353235135540385575,1361355180.580532,-11456,-9576,2508,nan,0.000000
2,5,13,0,13924413,19718620,-8353235135540382954,1361355180.580532,-20884,-11424,9056,nan,0.000000
2,5,14,0,13924413,19718652,-8353235135540380333,1361355180.581512,-17616,-9364,1076,nan,0.000000
2,5,14,0,13924413,19718652,-8353235135540377712,1361355180.581512,-14864,800,3200,nan,0.000000
2,5,14,0,13924413,19718652,-8353235135540375091,1361355180.581512,-16836,-5776,3652,nan,0.000000
2,5,14,0,13924413,19718652,-8353235135540372470,1361355180.581512,-10508,-10888,1680,nan,0.000000
2,5,14,0,13924413,19718652,-8353235135540369849,1361355180.581512,-10512,-4860,2632,nan,0.000000
2,5,15,0,13924413,19718684,-8353235135540367228,1361355183.055840,-12184,-5280,4956,nan,0.000000
2,5,15,0,13924413,19718684,-8353235135540364607,1361355183.055840,-12704,-6680,4628,nan,0.000000
2,5,15,0,13924413,19718684,-8353235135540361986,1361355183.055840,-18348,-10436,8132,nan,0.000000
2,5,15,0,13924413,19718684,-8353235135540359365,1361355183.055840,-12988,-16380,4988,nan,0.000000
2,5,15,0,13924413,19718684,-8353235135540356744,1361355183.055840,-15016,-6684,2748,nan,0.000000
1,5,0,0,14005695,19799778,1446474502208642067,1361355183.057499,-12944,-9248,3316,nan,0.000000
1,5,0,0,14005695,19799778,1446474502208644688,1361355183.057499,-11400,-2688,1548,nan,0.000000
2,5,1,0,14005695,19799810,1446474502208647309,1361355183.058095,-11372,-7652,2560,nan,0.000000
2,5,1,0,14005695,19799810,1446474502208649930,1361355183.058095,-11048,-9056,1144,nan,0.000000
2,5,1,0,14005695,19799810,1446474502208652551,1361355183.058095,-18560,-10792,5776,nan,0.000000
2,5,1,0,14005695,19799810,1446474502208655172,1361355183.058095,-19740,-9496,5312,nan,0.000000
2,5,1,0,14005695,19799810,1446474502208657793,1361355183.058095,-14748,-1996,-836,nan,0.000000
2,5,2,0,14005695,19799841,1446474502208660414,1361355183.059482,-17884,-564,4356,nan,0.000000
2,5,2,0,14005695,19799841,1446474502208663035,1361355183.059482,-13256,-13428,2572,nan,0.000000
2,5,2,0,14005695,19799841,1446474502208665656,1361355183.059482,-9492,-3772,860,nan,0.000000
2,5,2,0,14005695,19799841,1446474502208668277,1361355183.059482,-11816,-4056,4140,nan,0.000000
2,5,2,0,14005695,19799841,1446474502208670898,1361355183.059482,-13140,-6812,5860,nan,0.000000
2,5,3,0,14005695,19799874,1446474502208673519,1361355183.061303,-17580,-8220,6180,nan,0.000000
2,5,3,0,14005695,19799874,1446474502208676140,1361355183.061303,-14256,-15684,7144,nan,0.000000
2,5,3,0,14005695,19799874,1446474502208678761,1361355183.061303,-15604,-8776,2372,nan,0.000000
2,5,3,0,14005695,19799874,1446474502208681382,1361355183.061303,-15880,-4144,3424,nan,0.000000
2,5,3,0,14005695,19799874,1446474502208684003,1361355183.061303,-14348,-10668,3800,nan,0.000000
2,5,4,0,14005695,19799905,1446474502208686624,1361355183.065919,-10688,-1668,1464,nan,0.000000
