type,ID,seq,packetLoss,nodeTimestamp,bsTimestamp,syncTimestamp,systemTime,accelX,accelY,accelZ,cannula,voltage
1,5,9,0,1158078,93241502,5479213942192616464,1361370162.295633,-17208,580,1232,nan,0.000000
1,5,9,0,1158078,93241502,5479213942192619085,1361370162.295633,-16456,-648,2336,nan,0.000000
2,5,10,0,1158078,93241534,5479213942192621706,1361370162.295873,-16440,-112,1924,nan,0.000000
2,5,10,0,1158078,93241534,5479213942192624327,1361370162.295873,-16448,324,2276,nan,0.000000
2,5,10,0,1158078,93241534,5479213942192626948,1361370162.295873,-16260,-896,2564,nan,0.000000
2,5,10,0,1158078,93241534,5479213942192629569,1361370162.295873,-15708,-1324,2912,nan,0.000000
2,5,10,0,1158078,93241534,5479213942192632190,1361370162.295873,-15832,-2420,3416,nan,0.000000
2,5,11,0,1158078,93241566,5479213942192634811,1361370162.296284,-16348,-1532,3220,nan,0.000000
2,5,11,0,1158078,93241566,5479213942192637432,1361370162.296284,-18500,-648,3556,nan,0.000000
2,5,11,0,1158078,93241566,5479213942192640053,1361370162.296284,-17684,-616,2520,nan,0.000000
2,5,11,0,1158078,93241566,5479213942192642674,1361370162.296284,-15888,400,2696,nan,0.000000
2,5,11,0,1158078,93241566,5479213942192645295,1361370162.296284,-15308,784,3076,nan,0.000000
2,5,12,0,1158078,93241597,5479213942192647916,1361370162.296634,-15096,3880,2868,nan,0.000000
2,5,12,0,1158078,93241597,5479213942192650537,1361370162.296634,-17340,404,4600,nan,0.000000
2,5,12,0,1158078,93241597,5479213942192653158,1361370162.296634,-16296,1320,4612,nan,0.000000
2,5,12,0,1158078,93241597,5479213942192655779,1361370162.296634,-14696,2828,4240,nan,0.000000
2,5,12,0,1158078,93241597,5479213942192658400,1361370162.296634,-15332,792,5132,nan,0.000000
2,5,13,0,1158078,93241629,5479213942192661021,1361370162.297041,-15796,640,4816,nan,0.000000
2,5,13,0,1158078,93241629,5479213942192663642,1361370162.297041,-15520,1424,4724,nan,0.000000
2,5,13,0,1158078,93241629,5479213942192666263,1361370162.297041,-15808,-244,5776,nan,0.000000
2,5,13,0,1158078,93241629,5479213942192668884,1361370162.297041,-15408,552,5852,nan,0.000000
2,5,13,0,1158078,93241629,5479213942192671505,1361370162.297041,-15076,1104,6296,nan,0.000000
2,5,14,0,1158078,93241661,5479213942192674126,1361370162.297418,-14472,188,6164,nan,0.000000
2,5,14,0,1158078,93241661,5479213942192676747,1361370162.297418,-15012,-256,6740,nan,0.000000
2,5,14,0,1158078,93241661,5479213942192679368,1361370162.297418,-14920,828,6672,nan,0.000000
2,5,14,0,1158078,93241661,5479213942192681989,1361370162.297418,-15160,2440,7292,nan,0.000000
2,5,14,0,1158078,93241661,5479213942192684610,1361370162.297418,-16700,4288,6380,nan,0.000000
2,5,15,0,1158078,93241692,5479213942192687231,1361370162.297804,-16948,2220,4368,nan,0.000000
2,5,15,0,1158078,93241692,5479213942192689852,1361370162.297804,-18052,4964,-288,nan,0.000000
2,5,15,0,1158078,93241692,5479213942192692473,1361370162.297804,-16156,680,-2340,nan,0.000000
2,5,15,0,1158078,93241692,5479213942192695094,1361370162.297804,-15480,1448,-2824,nan,0.000000
2,5,15,0,1158078,93241692,5479213942192697715,1361370162.297804,-17900,184,-1528,nan,0.000000
1,5,0,0,1239399,93322880,-2234238330269528047,1361370162.298200,-17400,180,-180,nan,0.000000
1,5,0,0,1239399,93322880,-2234238330269525426,1361370162.298200,-15404,1136,-8,nan,0.000000
2,5,1,0,1239399,93323007,-2234238330269522805,1361370162.298379,-16516,1496,76,nan,0.000000
2,5,1,0,1239399,93323007,-2234238330269520184,1361370162.298379,-16364,-112,688,nan,0.000000
2,5,1,0,1239399,93323007,-2234238330269517563,1361370162.298379,-16592,-908,1500,nan,0.000000
2,5,1,0,1239399,93323007,-2234238330269514942,1361370162.298379,-16488,-1952,1928,nan,0.000000
2,5,1,0,1239399,93323007,-2234238330269512321,1361370162.298379,-16392,-1252,1744,nan,0.000000
2,5,2,0,1239399,93323039,-2234238330269509700,1361370162.298753,-16352,-1012,2512,nan,0.000000
2,5,2,0,1239399,93323039,-2234238330269507079,1361370162.298753,-19036,-1928,2380,nan,0.000000
2,5,2,0,1239399,93323039,-2234238330269504458,1361370162.298753,-16196,3020,156,nan,0.000000
2,5,2,0,1239399,93323039,-2234238330269501837,1361370162.298753,-13492,2016,1352,nan,0.000000
2,5,2,0,1239399,93323039,-2234238330269499216,1361370162.298753,-18976,-1456,3660,nan,0.000000
2,5,3,0,1239399,93323070,-2234238330269496595,1361370162.299178,-16624,-244,2548,nan,0.000000
2,5,3,0,1239399,93323070,-2234238330269493974,1361370162.299178,-14356,1316,3380,nan,0.000000
2,5,3,0,1239399,93323070,-2234238330269491353,1361370162.299178,-14716,196,3612,nan,0.000000
2,5,3,0,1239399,93323070,-2234238330269488732,1361370162.299178,-16188,192,2572,nan,0.000000
2,5,3,0,1239399,93323070,-2234238330269486111,1361370162.299178,-17932,3324,3068,nan,0.000000
2,5,4,0,1239399,93323102,-2234238330269483490,1361370162.299561,-15180,-32,5328,nan,0.000000
2,5,4,0,1239399,93323102,-2234238330269480869,1361370162.299561,-15708,-1560,4484,nan,0.000000
2,5,4,0,1239399,93323102,-2234238330269478248,1361370162.299561,-15736,592,4788,nan,0.000000
2,5,4,0,1239399,93323102,-2234238330269475627,1361370162.299561,-17116,-252,4140,nan,0.000000
2,5,4,0,1239399,93323102,-2234238330269473006,1361370162.299561,-18768,720,2844,nan,0.000000
2,5,5,0,1239399,93323134,-2234238330269470385,1361370162.299939,-14360,1252,4916,nan,0.000000
2,5,5,0,1239399,93323134,-2234238330269467764,1361370162.299939,-15628,1816,2184,nan,0.000000
2,5,5,0,1239399,93323134,-2234238330269465143,1361370162.299939,-15664,-1532,2992,nan,0.000000
2,5,5,0,1239399,93323134,-2234238330269462522,1361370162.299939,-18264,3364,1324,nan,0.000000
2,5,5,0,1239399,93323134,-2234238330269459901,1361370162.299939,-16552,-600,2884,nan,0.000000
2,5,6,0,1239399,93323165,-2234238330269457280,1361370162.300319,-14228,-3148,2316,nan,0.000000
2,5,6,0,1239399,93323165,-2234238330269454659,1361370162.300319,-16340,-2004,2852,nan,0.000000
2,5,6,0,1239399,93323165,-2234238330269452038,1361370162.300319,-16808,-1100,3384,nan,0.000000
2,5,6,0,1239399,93323165,-2234238330269449417,1361370162.300319,-15584,-2012,3464,nan,0.000000
2,5,6,0,1239399,93323165,-2234238330269446796,1361370162.300319,-16048,-1328,2356,nan,0.000000
1,5,7,0,1320719,93404150,2597219054523517961,1361370162.300719,-16328,-2496,3552,nan,0.000000
1,5,7,0,1320719,93404150,2597219054523520582,1361370162.300719,-18632,-3196,4360,nan,0.000000
2,5,8,0,1320719,93404182,2597219054523523203,1361370162.300926,-15556,-256,912,nan,0.000000
2,5,8,0,1320719,93404182,2597219054523525824,1361370162.300926,-15716,188,4132,nan,0.000000
2,5,8,0,1320719,93404182,2597219054523528445,1361370162.300926,-16268,-584,4304,nan,0.000000
2,5,8,0,1320719,93404182,2597219054523531066,1361370162.300926,-16536,-48,4404,nan,0.000000
2,5,8,0,1320719,93404182,2597219054523533687,1361370162.300926,-14740,1620,2988,nan,0.000000
2,5,9,0,1320719,93404214,2597219054523536308,1361370162.301300,-15280,-908,3620,nan,0.000000
2,5,9,0,1320719,93404214,2597219054523538929,1361370162.301300,-15728,-488,3648,nan,0.000000
2,5,9,0,1320719,93404214,2597219054523541550,1361370162.301300,-15472,1408,2520,nan,0.000000
2,5,9,0,1320719,93404214,2597219054523544171,1361370162.301300,-16396,1132,3492,nan,0.000000
2,5,9,0,1320719,93404214,2597219054523546792,1361370162.301300,-16700,-32,3016,nan,0.000000
2,5,10,0,1320719,93404245,2597219054523549413,1361370162.301674,-16584,-1092,3988,nan,0.000000
2,5,10,0,1320719,93404245,2597219054523552034,1361370162.301674,-15584,228,4228,nan,0.000000
2,5,10,0,1320719,93404245,2597219054523554655,1361370162.301674,-17052,-508,3580,nan,0.000000
2,5,10,0,1320719,93404245,2597219054523557276,1361370162.301674,-17636,-80,1308,nan,0.000000
2,5,10,0,1320719,93404245,2597219054523559897,1361370162.301674,-14684,-852,5256,nan,0.000000
2,5,11,0,1320719,93404277,2597219054523562518,1361370162.302050,-16444,348,1932,nan,0.000000
2,5,11,0,1320719,93404277,2597219054523565139,1361370162.302050,-16820,-1060,2996,nan,0.000000
2,5,11,0,1320719,93404277,2597219054523567760,1361370162.302050,-16036,456,1504,nan,0.000000
2,5,11,0,1320719,93404277,2597219054523570381,1361370162.302050,-16424,-1548,2648,nan,0.000000
2,5,11,0,1320719,93404277,2597219054523573002,1361370162.302050,-16200,-2400,2292,nan,0.000000
2,5,12,0,1320719,93404309,2597219054523575623,1361370162.302427,-16264,-1544,1516,nan,0.000000
2,5,12,0,1320719,93404309,2597219054523578244,1361370162.302427,-16372,-1644,2576,nan,0.000000
2,5,12,0,1320719,93404309,2597219054523580865,1361370162.302427,-16356,-1148,1852,nan,0.000000
2,5,12,0,1320719,93404309,2597219054523583486,1361370162.302427,-16312,-1584,2608,nan,0.000000
2,5,12,0,1320719,93404309,2597219054523586107,1361370162.302427,-16692,-1368,2320,nan,0.000000
2,5,13,0,1320719,93404340,2597219054523588728,1361370162.302840,-16528,-1268,2408,nan,0.000000
2,5,13,0,1320719,93404340,2597219054523591349,1361370162.302840,-15988,-2316,3144,nan,0.000000
2,5,13,0,1320719,93404340,2597219054523593970,1361370162.302840,-16856,-3324,3360,nan,0.000000
2,5,13,0,1320719,93404340,2597219054523596591,1361370162.302840,-16980,-1508,2304,nan,0.000000
2,5,13,0,1320719,93404340,2597219054523599212,1361370162.302840,-15444,-1632,3016,nan,0.000000
1,5,14,0,1402038,93485475,5191793810211956745,1361370162.303214,-15892,-640,2796,nan,0.000000
1,5,14,0,1402038,93485475,5191793810211959366,1361370162.303214,-16424,-936,3536,nan,0.000000
2,5,15,0,1402038,93485507,5191793810211961987,1361370162.303384,-16452,-580,3444,nan,0.000000
2,5,15,0,1402038,93485507,5191793810211964608,1361370162.303384,-15884,-556,3820,nan,0.000000
2,5,15,0,1402038,93485507,5191793810211967229,1361370162.303384,-15280,-204,3792,nan,0.000000
2,5,15,0,1402038,93485507,5191793810211969850,1361370162.303384,-15444,-1396,4152,nan,0.000000
2,5,15,0,1402038,93485507,5191793810211972471,1361370162.303384,-16408,-1708,3152,nan,0.000000
2,5,0,0,1402038,93485539,5191793810211975092,1361370162.303753,-16788,536,3776,nan,0.000000
2,5,0,0,1402038,93485539,5191793810211977713,1361370162.303753,-15700,-120,4432,nan,0.000000
2,5,0,0,1402038,93485539,5191793810211980334,1361370162.303753,-15444,-652,4792,nan,0.000000
2,5,0,0,1402038,93485539,5191793810211982955,1361370162.303753,-15764,-1336,4288,nan,0.000000
2,5,0,0,1402038,93485539,5191793810211985576,1361370162.303753,-16116,-1796,2908,nan,0.000000
2,5,1,0,1402038,93485570,5191793810211988197,1361370162.304127,-17104,740,1968,nan,0.000000
2,5,1,0,1402038,93485570,5191793810211990818,1361370162.304127,-15628,-1172,2304,nan,0.000000
2,5,1,0,1402038,93485570,5191793810211993439,1361370162.304127,-16348,-164,1352,nan,0.000000
2,5,1,0,1402038,93485570,5191793810211996060,1361370162.304127,-16832,-540,1576,nan,0.000000
2,5,1,0,1402038,93485570,5191793810211998681,1361370162.304127,-16232,-2468,2164,nan,0.000000
2,5,2,0,1402038,93485602,5191793810212001302,1361370162.304501,-16332,-2412,1316,nan,0.000000
2,5,2,0,1402038,93485602,5191793810212003923,1361370162.304501,-16708,-2132,1168,nan,0.000000
2,5,2,0,1402038,93485602,5191793810212006544,1361370162.304501,-16608,-2128,1604,nan,0.000000
2,5,2,0,1402038,93485602,5191793810212009165,1361370162.304501,-16448,-2408,1324,nan,0.000000
2,5,2,0,1402038,93485602,5191793810212011786,1361370162.304501,-16476,-2496,1388,nan,0.000000
2,5,3,0,1402038,93485634,5191793810212014407,1361370162.304875,-16240,-2204,1316,nan,0.000000
2,5,3,0,1402038,93485634,5191793810212017028,1361370162.304875,-16128,-3056,1540,nan,0.000000
2,5,3,0,1402038,93485634,5191793810212019649,1361370162.304875,-15912,-2712,1212,nan,0.000000
2,5,3,0,1402038,93485634,5191793810212022270,1361370162.304875,-16664,-2516,1788,nan,0.000000
2,5,3,0,1402038,93485634,5191793810212024891,1361370162.304875,-16148,-1876,2328,nan,0.000000
2,5,4,0,1402038,93485665,5191793810212027512,1361370162.356668,-15540,-2396,1576,nan,0.000000
2,5,4,0,1402038,93485665,5191793810212030133,1361370162.356668,-16816,-1416,2936,nan,0.000000
2,5,4,0,1402038,93485665,5191793810212032754,1361370162.356668,-16644,-1164,3684,nan,0.000000
2,5,4,0,1402038,93485665,5191793810212035375,1361370162.356668,-15724,-1224,2844,nan,0.000000
2,5,4,0,1402038,93485665,5191793810212037996,1361370162.356668,-16416,-76,4272,nan,0.000000
1,5,5,0,1483357,93566796,8650140525786966022,1361370162.357081,-15376,-504,4692,nan,0.000000
1,5,5,0,1483357,93566796,8650140525786968643,1361370162.357081,-14904,-548,4912,nan,0.000000
2,5,6,0,1483357,93566828,8650140525786971264,1361370162.357266,-15948,-620,4656,nan,0.000000
2,5,6,0,1483357,93566828,8650140525786973885,1361370162.357266,-15856,140,4556,nan,0.000000
2,5,6,0,1483357,93566828,8650140525786976506,1361370162.357266,-15340,-1220,4908,nan,0.000000
2,5,6,0,1483357,93566828,8650140525786979127,1361370162.357266,-15228,-2320,5020,nan,0.000000
2,5,6,0,1483357,93566828,8650140525786981748,1361370162.357266,-15740,-2116,5444,nan,0.000000
2,5,7,0,1483357,93566860,8650140525786984369,1361370162.357568,-16748,-1304,5376,nan,0.000000
2,5,7,0,1483357,93566860,8650140525786986990,1361370162.357568,-15808,-608,4656,nan,0.000000
2,5,7,0,1483357,93566860,8650140525786989611,1361370162.357568,-15704,-364,4220,nan,0.000000
2,5,7,0,1483357,93566860,8650140525786992232,1361370162.357568,-16040,-388,2644,nan,0.000000
2,5,7,0,1483357,93566860,8650140525786994853,1361370162.357568,-16660,-260,2168,nan,0.000000
2,5,8,0,1483357,93566892,8650140525786997474,1361370162.357940,-17308,-1020,2788,nan,0.000000
2,5,8,0,1483357,93566892,8650140525787000095,1361370162.357940,-15736,-2024,2132,nan,0.000000
2,5,8,0,1483357,93566892,8650140525787002716,1361370162.357940,-15744,-2836,2412,nan,0.000000
2,5,8,0,1483357,93566892,8650140525787005337,1361370162.357940,-16472,-2112,2164,nan,0.000000
2,5,8,0,1483357,93566892,8650140525787007958,1361370162.357940,-16236,-1976,1544,nan,0.000000
2,5,9,0,1483357,93566924,8650140525787010579,1361370162.358321,-16536,-2500,984,nan,0.000000
2,5,9,0,1483357,93566924,8650140525787013200,1361370162.358321,-15912,-1392,1196,nan,0.000000
2,5,9,0,1483357,93566924,8650140525787015821,1361370162.358321,-16836,-1604,1964,nan,0.000000
2,5,9,0,1483357,93566924,8650140525787018442,1361370162.358321,-16076,-3404,1880,nan,0.000000
2,5,9,0,1483357,93566924,8650140525787021063,1361370162.358321,-16024,-3504,1740,nan,0.000000
2,5,10,0,1483357,93566956,8650140525787023684,1361370162.358620,-16348,-3060,1924,nan,0.000000
2,5,10,0,1483357,93566956,8650140525787026305,1361370162.358620,-17132,-888,3620,nan,0.000000
2,5,10,0,1483357,93566956,8650140525787028926,1361370162.358620,-15576,-2660,1376,nan,0.000000
2,5,10,0,1483357,93566956,8650140525787031547,1361370162.358620,-16736,-1580,3496,nan,0.000000
2,5,10,0,1483357,93566956,8650140525787034168,1361370162.358620,-16480,-1360,2996,nan,0.000000
2,5,11,0,1483357,93566988,8650140525787036789,1361370164.834119,-15760,-1032,3428,nan,0.000000
2,5,11,0,1483357,93566988,8650140525787039410,1361370164.834119,-15436,1048,3176,nan,0.000000
2,5,11,0,1483357,93566988,8650140525787042031,1361370164.834119,-16532,712,4196,nan,0.000000
2,5,11,0,1483357,93566988,8650140525787044652,1361370164.834119,-16548,-244,4332,nan,0.000000
2,5,11,0,1483357,93566988,8650140525787047273,1361370164.834119,-16472,-460,4464,nan,0.000000
1,5,12,0,1564677,93648122,7497393888156673037,1361370164.835342,-15600,-512,3740,nan,0.000000
1,5,12,0,1564677,93648122,7497393888156675658,1361370164.835342,-16420,136,3672,nan,0.000000
2,5,13,0,1564677,93648154,7497393888156678279,1361370164.836067,-16620,712,4204,nan,0.000000
2,5,13,0,1564677,93648154,7497393888156680900,1361370164.836067,-16080,1408,4276,nan,0.000000
2,5,13,0,1564677,93648154,7497393888156683521,1361370164.836067,-16012,236,4332,nan,0.000000
2,5,13,0,1564677,93648154,7497393888156686142,1361370164.836067,-15532,1268,3660,nan,0.000000
2,5,13,0,1564677,93648154,7497393888156688763,1361370164.836067,-16536,1512,4072,nan,0.000000
2,5,14,0,1564677,93648186,7497393888156691384,1361370164.837134,-16260,620,4452,nan,0.000000
2,5,14,0,1564677,93648186,7497393888156694005,1361370164.837134,-15408,-768,4388,nan,0.000000
2,5,14,0,1564677,93648186,7497393888156696626,1361370164.837134,-16068,240,3516,nan,0.000000
2,5,14,0,1564677,93648186,7497393888156699247,1361370164.837134,-15984,-816,3460,nan,0.000000
2,5,14,0,1564677,93648186,7497393888156701868,1361370164.837134,-16528,-2508,3024,nan,0.000000
2,5,15,0,1564677,93648218,7497393888156704489,1361370164.837975,-16400,-1772,3020,nan,0.000000
2,5,15,0,1564677,93648218,7497393888156707110,1361370164.837975,-16236,-1712,2844,nan,0.000000
2,5,15,0,1564677,93648218,7497393888156709731,1361370164.837975,-16144,-2732,2656,nan,0.000000
2,5,15,0,1564677,93648218,7497393888156712352,1361370164.837975,-16000,-2780,2904,nan,0.000000
2,5,15,0,1564677,93648218,7497393888156714973,1361370164.837975,-16456,-1532,3368,nan,0.000000
2,5,0,0,1564677,93648250,7497393888156717594,1361370164.838759,-15820,-1104,2996,nan,0.000000
2,5,0,0,1564677,93648250,7497393888156720215,1361370164.838759,-15948,-1524,2452,nan,0.000000
2,5,0,0,1564677,93648250,7497393888156722836,1361370164.838759,-16848,-692,2708,nan,0.000000
2,5,0,0,1564677,93648250,7497393888156725457,1361370164.838759,-16340,-412,3628,nan,0.000000
2,5,0,0,1564677,93648250,7497393888156728078,1361370164.838759,-16048,-892,3144,nan,0.000000
2,5,1,0,1564677,93648281,7497393888156730699,1361370164.839811,-16216,-280,3388,nan,0.000000
2,5,1,0,1564677,93648281,7497393888156733320,1361370164.839811,-16356,168,3776,nan,0.000000
2,5,1,0,1564677,93648281,7497393888156735941,1361370164.839811,-16152,-92,3836,nan,0.000000
2,5,1,0,1564677,93648281,7497393888156738562,1361370164.839811,-16164,-388,3964,nan,0.000000
2,5,1,0,1564677,93648281,7497393888156741183,1361370164.839811,-16048,-960,3824,nan,0.000000
2,5,2,0,1564677,93648314,7497393888156743804,1361370167.316127,-15852,-1956,3492,nan,0.000000
2,5,2,0,1564677,93648314,7497393888156746425,1361370167.316127,-16012,-1912,3404,nan,0.000000
2,5,2,0,1564677,93648314,7497393888156749046,1361370167.316127,-15892,-2836,3404,nan,0.000000
2,5,2,0,1564677,93648314,7497393888156751667,1361370167.316127,-15796,-2824,3176,nan,0.000000
2,5,2,0,1564677,93648314,7497393888156754288,1361370167.316127,-15916,-3092,2740,nan,0.000000
1,5,3,0,1645997,93729443,5480186922271876109,1361370167.317357,-16616,-2104,2244,nan,0.000000
1,5,3,0,1645997,93729443,5480186922271878730,1361370167.317357,-16480,-1892,1776,nan,0.000000
2,5,4,0,1645997,93729475,5480186922271881351,1361370167.318040,-16112,-3148,1600,nan,0.000000
2,5,4,0,1645997,93729475,5480186922271883972,1361370167.318040,-15952,-2960,1044,nan,0.000000
2,5,4,0,1645997,93729475,5480186922271886593,1361370167.318040,-15872,-3168,1368,nan,0.000000
2,5,4,0,1645997,93729475,5480186922271889214,1361370167.318040,-17108,-3212,616,nan,0.000000
2,5,4,0,1645997,93729475,5480186922271891835,1361370167.318040,-16540,-2308,2012,nan,0.000000
2,5,5,0,1645997,93729507,5480186922271894456,1361370167.318898,-16808,60,-232,nan,0.000000
2,5,5,0,1645997,93729507,5480186922271897077,1361370167.318898,-16804,1328,3956,nan,0.000000
2,5,5,0,1645997,93729507,5480186922271899698,1361370167.318898,-17504,-596,3464,nan,0.000000
2,5,5,0,1645997,93729507,5480186922271902319,1361370167.318898,-15736,1060,3072,nan,0.000000
2,5,5,0,1645997,93729507,5480186922271904940,1361370167.318898,-14748,1032,3264,nan,0.000000
2,5,6,0,1645997,93729539,5480186922271907561,1361370167.319736,-15912,736,3124,nan,0.000000
2,5,6,0,1645997,93729539,5480186922271910182,1361370167.319736,-16240,-1336,3476,nan,0.000000
2,5,6,0,1645997,93729539,5480186922271912803,1361370167.319736,-15668,-1552,3292,nan,0.000000
2,5,6,0,1645997,93729539,5480186922271915424,1361370167.319736,-15192,-508,3320,nan,0.000000
2,5,6,0,1645997,93729539,5480186922271918045,1361370167.319736,-16016,-844,3020,nan,0.000000
2,5,7,0,1645997,93729571,5480186922271920666,1361370167.320531,-16104,-2188,4080,nan,0.000000
2,5,7,0,1645997,93729571,5480186922271923287,1361370167.320531,-17480,-3436,5348,nan,0.000000
2,5,7,0,1645997,93729571,5480186922271925908,1361370167.320531,-20664,3004,3240,nan,0.000000
2,5,7,0,1645997,93729571,5480186922271928529,1361370167.320531,-12964,732,3176,nan,0.000000
2,5,7,0,1645997,93729571,5480186922271931150,1361370167.320531,-18040,1460,-152,nan,0.000000
2,5,8,0,1645997,93729603,5480186922271933771,1361370167.321722,-15748,2236,2112,nan,0.000000
2,5,8,0,1645997,93729603,5480186922271936392,1361370167.321722,-15836,-728,1284,nan,0.000000
2,5,8,0,1645997,93729603,5480186922271939013,1361370167.321722,-16088,-3032,2388,nan,0.000000
2,5,8,0,1645997,93729603,5480186922271941634,1361370167.321722,-16120,-964,2648,nan,0.000000
2,5,8,0,1645997,93729603,5480186922271944255,1361370167.321722,-15496,-1916,2512,nan,0.000000
2,5,9,0,1645997,93729635,5480186922271946876,1361370169.798003,-16056,-1936,2280,nan,0.000000
2,5,9,0,1645997,93729635,5480186922271949497,1361370169.798003,-16172,-2800,2116,nan,0.000000
2,5,9,0,1645997,93729635,5480186922271952118,1361370169.798003,-17992,-2100,2592,nan,0.000000
2,5,9,0,1645997,93729635,5480186922271954739,1361370169.798003,-18960,-1832,3668,nan,0.000000
2,5,9,0,1645997,93729635,5480186922271957360,1361370169.798003,-14984,472,-8,nan,0.000000
1,5,10,0,1727316,93810805,4902186842415228936,1361370169.799735,-17320,-736,3616,nan,0.000000
1,5,10,0,1727316,93810805,4902186842415231557,1361370169.799735,-16508,-828,3644,nan,0.000000
2,5,11,0,1727316,93810837,4902186842415234178,1361370169.800322,-14432,1316,3688,nan,0.000000
2,5,11,0,1727316,93810837,4902186842415236799,1361370169.800322,-15736,-680,4624,nan,0.000000
2,5,11,0,1727316,93810837,4902186842415239420,1361370169.800322,-15844,-1564,3580,nan,0.000000
2,5,11,0,1727316,93810837,4902186842415242041,1361370169.800322,-15768,960,2848,nan,0.000000
2,5,11,0,1727316,93810837,4902186842415244662,1361370169.800322,-15656,-472,3856,nan,0.000000
2,5,12,0,1727316,93810868,4902186842415247283,1361370169.801660,-15972,-2868,4560,nan,0.000000
2,5,12,0,1727316,93810868,4902186842415249904,1361370169.801660,-16404,-2568,4328,nan,0.000000
2,5,12,0,1727316,93810868,4902186842415252525,1361370169.801660,-16072,-588,5088,nan,0.000000
2,5,12,0,1727316,93810868,4902186842415255146,1361370169.801660,-17984,2152,3528,nan,0.000000
2,5,12,0,1727316,93810868,4902186842415257767,1361370169.801660,-16124,1032,3992,nan,0.000000
2,5,13,0,1727316,93810901,4902186842415260388,1361370169.802364,-15040,244,3248,nan,0.000000
2,5,13,0,1727316,93810901,4902186842415263009,1361370169.802364,-17220,-788,2576,nan,0.000000
2,5,13,0,1727316,93810901,4902186842415265630,1361370169.802364,-16264,1200,2476,nan,0.000000
2,5,13,0,1727316,93810901,4902186842415268251,1361370169.802364,-15908,-1112,2420,nan,0.000000
2,5,13,0,1727316,93810901,4902186842415270872,1361370169.802364,-15740,-2344,2484,nan,0.000000
2,5,14,0,1727316,93810932,4902186842415273493,1361370169.803695,-16520,-320,2436,nan,0.000000
2,5,14,0,1727316,93810932,4902186842415276114,1361370169.803695,-16112,-1168,2428,nan,0.000000
2,5,14,0,1727316,93810932,4902186842415278735,1361370169.803695,-16168,-1792,2324,nan,0.000000
2,5,14,0,1727316,93810932,4902186842415281356,1361370169.803695,-16244,-1832,2088,nan,0.000000
2,5,14,0,1727316,93810932,4902186842415283977,1361370169.803695,-16344,-1420,2636,nan,0.000000
2,5,15,0,1727316,93810965,4902186842415286598,1361370169.805678,-18332,-2608,2864,nan,0.000000
2,5,15,0,1727316,93810965,4902186842415289219,1361370169.805678,-17652,-1812,3632,nan,0.000000
2,5,15,0,1727316,93810965,4902186842415291840,1361370169.805678,-14660,-1640,816,nan,0.000000
2,5,15,0,1727316,93810965,4902186842415294461,1361370169.805678,-15072,1140,3912,nan,0.000000
2,5,15,0,1727316,93810965,4902186842415297082,1361370169.805678,-15924,-36,4408,nan,0.000000
2,5,0,0,1727316,93810996,4902186842415299703,1361370172.279754,-17144,-2540,5204,nan,0.000000
2,5,0,0,1727316,93810996,4902186842415302324,1361370172.279754,-15252,2272,3740,nan,0.000000
2,5,0,0,1727316,93810996,4902186842415304945,1361370172.279754,-15560,-280,5008,nan,0.000000
2,5,0,0,1727316,93810996,4902186842415307566,1361370172.279754,-15236,-2040,4756,nan,0.000000
2,5,0,0,1727316,93810996,4902186842415310187,1361370172.279754,-15648,-1484,4792,nan,0.000000
1,5,1,0,1808634,93892088,-7201572427329678316,1361370172.281181,-15552,-976,4996,nan,0.000000
1,5,1,0,1808634,93892088,-7201572427329675695,1361370172.281181,-15932,-3412,5996,nan,0.000000
2,5,2,0,1808634,93892120,-7201572427329673074,1361370172.282045,-16084,-112,6192,nan,0.000000
2,5,2,0,1808634,93892120,-7201572427329670453,1361370172.282045,-20392,1880,3000,nan,0.000000
2,5,2,0,1808634,93892120,-7201572427329667832,1361370172.282045,-12736,-964,5984,nan,0.000000
2,5,2,0,1808634,93892120,-7201572427329665211,1361370172.282045,-16540,2184,1624,nan,0.000000
2,5,2,0,1808634,93892120,-7201572427329662590,1361370172.282045,-16720,1064,3600,nan,0.000000
2,5,3,0,1808634,93892152,-7201572427329659969,1361370172.283880,-16648,-904,2656,nan,0.000000
2,5,3,0,1808634,93892152,-7201572427329657348,1361370172.283880,-15736,-1388,2744,nan,0.000000
2,5,3,0,1808634,93892152,-7201572427329654727,1361370172.283880,-16084,-640,2588,nan,0.000000
2,5,3,0,1808634,93892152,-7201572427329652106,1361370172.283880,-16156,-1032,2044,nan,0.000000
2,5,3,0,1808634,93892152,-7201572427329649485,1361370172.283880,-15928,-2004,2256,nan,0.000000
2,5,4,0,1808634,93892184,-7201572427329646864,1361370172.284762,-16660,-1804,1704,nan,0.000000
2,5,4,0,1808634,93892184,-7201572427329644243,1361370172.284762,-16812,-2216,2464,nan,0.000000
2,5,4,0,1808634,93892184,-7201572427329641622,1361370172.284762,-16124,-1688,2644,nan,0.000000
2,5,4,0,1808634,93892184,-7201572427329639001,1361370172.284762,-16220,-3008,2088,nan,0.000000
2,5,4,0,1808634,93892184,-7201572427329636380,1361370172.284762,-17340,-2020,1536,nan,0.000000
2,5,5,0,1808634,93892216,-7201572427329633759,1361370172.285414,-15732,-1512,3660,nan,0.000000
2,5,5,0,1808634,93892216,-7201572427329631138,1361370172.285414,-16608,296,1604,nan,0.000000
2,5,5,0,1808634,93892216,-7201572427329628517,1361370172.285414,-15836,2884,3136,nan,0.000000
2,5,5,0,1808634,93892216,-7201572427329625896,1361370172.285414,-16364,1176,3668,nan,0.000000
2,5,5,0,1808634,93892216,-7201572427329623275,1361370172.285414,-16268,-836,4116,nan,0.000000
2,5,6,0,1808634,93892248,-7201572427329620654,1361370172.286078,-16196,180,3296,nan,0.000000
2,5,6,0,1808634,93892248,-7201572427329618033,1361370172.286078,-15964,2120,2444,nan,0.000000
2,5,6,0,1808634,93892248,-7201572427329615412,1361370172.286078,-16540,-1776,5144,nan,0.000000
2,5,6,0,1808634,93892248,-7201572427329612791,1361370172.286078,-15544,-184,4724,nan,0.000000
2,5,6,0,1808634,93892248,-7201572427329610170,1361370172.286078,-14992,356,5108,nan,0.000000
2,5,7,0,1808634,93892280,-7201572427329607549,1361370174.761932,-15388,1468,5212,nan,0.000000
2,5,7,0,1808634,93892280,-7201572427329604928,1361370174.761932,-15488,588,5964,nan,0.000000
2,5,7,0,1808634,93892280,-7201572427329602307,1361370174.761932,-16544,40,5516,nan,0.000000
2,5,7,0,1808634,93892280,-7201572427329599686,1361370174.761932,-17144,160,4020,nan,0.000000
2,5,7,0,1808634,93892280,-7201572427329597065,1361370174.761932,-15316,60,3656,nan,0.000000
1,5,8,0,1889950,93973409,5482934644980800532,1361370174.763131,-17328,592,2136,nan,0.000000
1,5,8,0,1889950,93973409,5482934644980803153,1361370174.763131,-15512,-1112,1928,nan,0.000000
2,5,9,0,1889950,93973440,5482934644980805774,1361370174.763864,-16168,-1224,2032,nan,0.000000
2,5,9,0,1889950,93973440,5482934644980808395,1361370174.763864,-16452,-1476,3392,nan,0.000000
2,5,9,0,1889950,93973440,5482934644980811016,1361370174.763864,-16448,-484,2556,nan,0.000000
2,5,9,0,1889950,93973440,5482934644980813637,1361370174.763864,-16520,-840,2888,nan,0.000000
2,5,9,0,1889950,93973440,5482934644980816258,1361370174.763864,-16744,-4556,4376,nan,0.000000
2,5,10,0,1889950,93973472,5482934644980818879,1361370174.764583,-15808,1140,-368,nan,0.000000
2,5,10,0,1889950,93973472,5482934644980821500,1361370174.764583,-16552,-1640,2992,nan,0.000000
2,5,10,0,1889950,93973472,5482934644980824121,1361370174.764583,-15892,224,2156,nan,0.000000
2,5,10,0,1889950,93973472,5482934644980826742,1361370174.764583,-16116,-492,2796,nan,0.000000
2,5,10,0,1889950,93973472,5482934644980829363,1361370174.764583,-15144,-3300,3516,nan,0.000000
2,5,11,0,1889950,93973504,5482934644980831984,1361370174.765667,-15924,-1640,2792,nan,0.000000
2,5,11,0,1889950,93973504,5482934644980834605,1361370174.765667,-20804,-716,2992,nan,0.000000
2,5,11,0,1889950,93973504,5482934644980837226,1361370174.765667,-15364,68,460,nan,0.000000
2,5,11,0,1889950,93973504,5482934644980839847,1361370174.765667,-16488,1328,2724,nan,0.000000
2,5,11,0,1889950,93973504,5482934644980842468,1361370174.765667,-16840,-4,1996,nan,0.000000
2,5,12,0,1889950,93973536,5482934644980845089,1361370174.766777,-15444,832,2452,nan,0.000000
2,5,12,0,1889950,93973536,5482934644980847710,1361370174.766777,-15816,300,2732,nan,0.000000
2,5,12,0,1889950,93973536,5482934644980850331,1361370174.766777,-16044,-228,3000,nan,0.000000
2,5,12,0,1889950,93973536,5482934644980852952,1361370174.766777,-15740,-1496,3300,nan,0.000000
2,5,12,0,1889950,93973536,5482934644980855573,1361370174.766777,-15656,-940,3276,nan,0.000000
2,5,13,0,1889950,93973568,5482934644980858194,1361370174.767630,-15924,16,3344,nan,0.000000
2,5,13,0,1889950,93973568,5482934644980860815,1361370174.767630,-16252,-800,4092,nan,0.000000
2,5,13,0,1889950,93973568,5482934644980863436,1361370174.767630,-15716,-2704,5100,nan,0.000000
2,5,13,0,1889950,93973568,5482934644980866057,1361370174.767630,-16900,-1592,4724,nan,0.000000
2,5,13,0,1889950,93973568,5482934644980868678,1361370174.767630,-18264,96,3052,nan,0.000000
2,5,14,0,1889950,93973600,5482934644980871299,1361370177.243943,-14324,712,4168,nan,0.000000
2,5,14,0,1889950,93973600,5482934644980873920,1361370177.243943,-15688,272,2352,nan,0.000000
2,5,14,0,1889950,93973600,5482934644980876541,1361370177.243943,-16740,520,1764,nan,0.000000
2,5,14,0,1889950,93973600,5482934644980879162,1361370177.243943,-16772,-408,2708,nan,0.000000
2,5,14,0,1889950,93973600,5482934644980881783,1361370177.243943,-16000,-312,2772,nan,0.000000
1,5,15,0,1971269,94054732,3461315388191688720,1361370177.245153,-16544,-44,2084,nan,0.000000
1,5,15,0,1971269,94054732,3461315388191691341,1361370177.245153,-16288,-792,2892,nan,0.000000
2,5,0,0,1971269,94054764,3461315388191693962,1361370177.245707,-15756,-656,2156,nan,0.000000
2,5,0,0,1971269,94054764,3461315388191696583,1361370177.245707,-16200,-1496,2536,nan,0.000000
2,5,0,0,1971269,94054764,3461315388191699204,1361370177.245707,-16952,-1256,2668,nan,0.000000
2,5,0,0,1971269,94054764,3461315388191701825,1361370177.245707,-17436,-2060,3452,nan,0.000000
2,5,0,0,1971269,94054764,3461315388191704446,1361370177.245707,-17832,-836,1952,nan,0.000000
2,5,1,0,1971269,94054796,3461315388191707067,1361370177.247025,-16228,-180,1572,nan,0.000000
2,5,1,0,1971269,94054796,3461315388191709688,1361370177.247025,-15484,504,2552,nan,0.000000
2,5,1,0,1971269,94054796,3461315388191712309,1361370177.247025,-16440,1084,2180,nan,0.000000
2,5,1,0,1971269,94054796,3461315388191714930,1361370177.247025,-16712,936,2776,nan,0.000000
2,5,1,0,1971269,94054796,3461315388191717551,1361370177.247025,-15924,356,3084,nan,0.000000
2,5,2,0,1971269,94054828,3461315388191720172,1361370177.248140,-15864,604,3272,nan,0.000000
2,5,2,0,1971269,94054828,3461315388191722793,1361370177.248140,-15996,-204,3468,nan,0.000000
2,5,2,0,1971269,94054828,3461315388191725414,1361370177.248140,-15916,-68,3356,nan,0.000000
2,5,2,0,1971269,94054828,3461315388191728035,1361370177.248140,-16084,644,3788,nan,0.000000
2,5,2,0,1971269,94054828,3461315388191730656,1361370177.248140,-15784,-260,4400,nan,0.000000
2,5,3,0,1971269,94054860,3461315388191733277,1361370177.248864,-15980,1048,3700,nan,0.000000
2,5,3,0,1971269,94054860,3461315388191735898,1361370177.248864,-15688,-328,4752,nan,0.000000
2,5,3,0,1971269,94054860,3461315388191738519,1361370177.248864,-15724,-648,4780,nan,0.000000
2,5,3,0,1971269,94054860,3461315388191741140,1361370177.248864,-16828,-1460,5248,nan,0.000000
2,5,3,0,1971269,94054860,3461315388191743761,1361370177.248864,-15952,-496,4708,nan,0.000000
2,5,4,0,1971269,94054892,3461315388191746382,1361370177.249562,-16996,2196,4852,nan,0.000000
2,5,4,0,1971269,94054892,3461315388191749003,1361370177.249562,-15816,188,4308,nan,0.000000
2,5,4,0,1971269,94054892,3461315388191751624,1361370177.249562,-14152,-536,2304,nan,0.000000
2,5,4,0,1971269,94054892,3461315388191754245,1361370177.249562,-17560,208,2496,nan,0.000000
2,5,4,0,1971269,94054892,3461315388191756866,1361370177.249562,-16332,284,4064,nan,0.000000
2,5,5,0,1971269,94054924,3461315388191759487,1361370179.723803,-15288,-2416,3408,nan,0.000000
2,5,5,0,1971269,94054924,3461315388191762108,1361370179.723803,-15928,-1020,3236,nan,0.000000
2,5,5,0,1971269,94054924,3461315388191764729,1361370179.723803,-15964,-992,3720,nan,0.000000
2,5,5,0,1971269,94054924,3461315388191767350,1361370179.723803,-15584,-1596,3656,nan,0.000000
2,5,5,0,1971269,94054924,3461315388191769971,1361370179.723803,-16316,-2808,3940,nan,0.000000
1,5,6,0,2052586,94136054,-6625915468022460403,1361370179.725453,-18788,-2120,5084,nan,0.000000
1,5,6,0,2052586,94136054,-6625915468022457782,1361370179.725453,-16864,180,52,nan,0.000000
2,5,7,0,2052586,94136086,-6625915468022455161,1361370179.726076,-15944,404,2456,nan,0.000000
2,5,7,0,2052586,94136086,-6625915468022452540,1361370179.726076,-16396,-348,3432,nan,0.000000
2,5,7,0,2052586,94136086,-6625915468022449919,1361370179.726076,-15532,-188,2992,nan,0.000000
2,5,7,0,2052586,94136086,-6625915468022447298,1361370179.726076,-15176,-648,3856,nan,0.000000
2,5,7,0,2052586,94136086,-6625915468022444677,1361370179.726076,-15268,-576,4648,nan,0.000000
2,5,8,0,2052586,94136118,-6625915468022442056,1361370179.727427,-15468,-1888,4144,nan,0.000000
2,5,8,0,2052586,94136118,-6625915468022439435,1361370179.727427,-15816,-416,3508,nan,0.000000
2,5,8,0,2052586,94136118,-6625915468022436814,1361370179.727427,-15932,264,4672,nan,0.000000
2,5,8,0,2052586,94136118,-6625915468022434193,1361370179.727427,-16060,-2748,5268,nan,0.000000
2,5,8,0,2052586,94136118,-6625915468022431572,1361370179.727427,-16200,-1856,4912,nan,0.000000
2,5,9,0,2052586,94136150,-6625915468022428951,1361370179.728229,-19764,1016,2300,nan,0.000000
2,5,9,0,2052586,94136150,-6625915468022426330,1361370179.728229,-14748,-464,5528,nan,0.000000
2,5,9,0,2052586,94136150,-6625915468022423709,1361370179.728229,-14372,920,884,nan,0.000000
2,5,9,0,2052586,94136150,-6625915468022421088,1361370179.728229,-16888,84,1884,nan,0.000000
2,5,9,0,2052586,94136150,-6625915468022418467,1361370179.728229,-17348,-324,3220,nan,0.000000
2,5,10,0,2052586,94136182,-6625915468022415846,1361370179.729417,-15020,-1688,2496,nan,0.000000
2,5,10,0,2052586,94136182,-6625915468022413225,1361370179.729417,-15784,-1500,2460,nan,0.000000
2,5,10,0,2052586,94136182,-6625915468022410604,1361370179.729417,-16640,460,2972,nan,0.000000
2,5,10,0,2052586,94136182,-6625915468022407983,1361370179.729417,-16044,-1820,3780,nan,0.000000
2,5,10,0,2052586,94136182,-6625915468022405362,1361370179.729417,-15772,-2076,2800,nan,0.000000
2,5,11,0,2052586,94136214,-6625915468022402741,1361370179.730308,-16068,-1524,3096,nan,0.000000
2,5,11,0,2052586,94136214,-6625915468022400120,1361370179.730308,-16408,-2404,4172,nan,0.000000
2,5,11,0,2052586,94136214,-6625915468022397499,1361370179.730308,-17552,-3464,4172,nan,0.000000
2,5,11,0,2052586,94136214,-6625915468022394878,1361370179.730308,-18512,-712,2892,nan,0.000000
2,5,11,0,2052586,94136214,-6625915468022392257,1361370179.730308,-15220,-420,1520,nan,0.000000
2,5,12,0,2052586,94136246,-6625915468022389636,1361370182.205726,-15444,156,3864,nan,0.000000
2,5,12,0,2052586,94136246,-6625915468022387015,1361370182.205726,-16532,260,2812,nan,0.000000
2,5,12,0,2052586,94136246,-6625915468022384394,1361370182.205726,-16112,32,3260,nan,0.000000
2,5,12,0,2052586,94136246,-6625915468022381773,1361370182.205726,-15592,224,3776,nan,0.000000
2,5,12,0,2052586,94136246,-6625915468022379152,1361370182.205726,-15408,-524,4256,nan,0.000000
1,5,13,0,2133904,94217374,-285411222218663921,1361370182.207439,-15908,-432,4552,nan,0.000000
1,5,13,0,2133904,94217374,-285411222218661300,1361370182.207439,-15388,-104,4964,nan,0.000000
2,5,14,0,2133904,94217406,-285411222218658679,1361370182.207837,-15292,628,4684,nan,0.000000
2,5,14,0,2133904,94217406,-285411222218656058,1361370182.207837,-15716,-1788,5264,nan,0.000000
2,5,14,0,2133904,94217406,-285411222218653437,1361370182.207837,-15604,-2516,6036,nan,0.000000
2,5,14,0,2133904,94217406,-285411222218650816,1361370182.207837,-17176,-1404,5600,nan,0.000000
2,5,14,0,2133904,94217406,-285411222218648195,1361370182.207837,-17124,1764,4692,nan,0.000000
2,5,15,0,2133904,94217437,-285411222218645574,1361370182.209426,-15240,496,5832,nan,0.000000
2,5,15,0,2133904,94217437,-285411222218642953,1361370182.209426,-15104,420,4132,nan,0.000000
2,5,15,0,2133904,94217437,-285411222218640332,1361370182.209426,-14956,-1084,2276,nan,0.000000
2,5,15,0,2133904,94217437,-285411222218637711,1361370182.209426,-17844,12,4056,nan,0.000000
2,5,15,0,2133904,94217437,-285411222218635090,1361370182.209426,-15768,96,3460,nan,0.000000
2,5,0,0,2133904,94217470,-285411222218632469,1361370182.210342,-15452,-2164,3068,nan,0.000000
2,5,0,0,2133904,94217470,-285411222218629848,1361370182.210342,-16108,-1448,3796,nan,0.000000
2,5,0,0,2133904,94217470,-285411222218627227,1361370182.210342,-16044,-1032,3720,nan,0.000000
2,5,0,0,2133904,94217470,-285411222218624606,1361370182.210342,-15576,-2184,3232,nan,0.000000
2,5,0,0,2133904,94217470,-285411222218621985,1361370182.210342,-16152,-2396,3512,nan,0.000000
2,5,1,0,2133904,94217501,-285411222218619364,1361370182.211369,-18744,-2776,4908,nan,0.000000
2,5,1,0,2133904,94217501,-285411222218616743,1361370182.211369,-18168,-256,2184,nan,0.000000
2,5,1,0,2133904,94217501,-285411222218614122,1361370182.211369,-14164,-828,168,nan,0.000000
2,5,1,0,2133904,94217501,-285411222218611501,1361370182.211369,-16856,-1000,3892,nan,0.000000
2,5,1,0,2133904,94217501,-285411222218608880,1361370182.211369,-16256,-1072,2156,nan,0.000000
2,5,2,0,2133904,94217534,-285411222218606259,1361370182.212326,-15956,-1128,2428,nan,0.000000
2,5,2,0,2133904,94217534,-285411222218603638,1361370182.212326,-15572,-688,2752,nan,0.000000
2,5,2,0,2133904,94217534,-285411222218601017,1361370182.212326,-15472,-1628,2736,nan,0.000000
2,5,2,0,2133904,94217534,-285411222218598396,1361370182.212326,-16664,-1028,1916,nan,0.000000
2,5,2,0,2133904,94217534,-285411222218595775,1361370182.212326,-17312,-1220,2816,nan,0.000000
2,5,3,0,2133904,94217565,-285411222218593154,1361370184.687420,-16384,-764,3128,nan,0.000000
2,5,3,0,2133904,94217565,-285411222218590533,1361370184.687420,-15732,872,2652,nan,0.000000
2,5,3,0,2133904,94217565,-285411222218587912,1361370184.687420,-16072,48,3244,nan,0.000000
2,5,3,0,2133904,94217565,-285411222218585291,1361370184.687420,-15868,-304,2940,nan,0.000000
2,5,3,0,2133904,94217565,-285411222218582670,1361370184.687420,-16272,1104,2152,nan,0.000000
1,5,4,0,2215221,94298695,6632227765712205836,1361370184.689338,-15768,-2456,1008,nan,0.000000
1,5,4,0,2215221,94298695,6632227765712208457,1361370184.689338,-16164,-368,1440,nan,0.000000
2,5,5,0,2215221,94298727,6632227765712211078,1361370184.690079,-18460,-3336,756,nan,0.000000
2,5,5,0,2215221,94298727,6632227765712213699,1361370184.690079,-16456,-900,1944,nan,0.000000
2,5,5,0,2215221,94298727,6632227765712216320,1361370184.690079,-15708,-3856,416,nan,0.000000
2,5,5,0,2215221,94298727,6632227765712218941,1361370184.690079,-16868,-1160,744,nan,0.000000
2,5,5,0,2215221,94298727,6632227765712221562,1361370184.690079,-17280,-524,620,nan,0.000000
2,5,6,0,2215221,94298759,6632227765712224183,1361370184.691313,-16224,-2152,1336,nan,0.000000
2,5,6,0,2215221,94298759,6632227765712226804,1361370184.691313,-15932,-3348,844,nan,0.000000
2,5,6,0,2215221,94298759,6632227765712229425,1361370184.691313,-15728,-2456,524,nan,0.000000
2,5,6,0,2215221,94298759,6632227765712232046,1361370184.691313,-16512,-1368,304,nan,0.000000
2,5,6,0,2215221,94298759,6632227765712234667,1361370184.691313,-17084,-156,2264,nan,0.000000
2,5,7,0,2215221,94298791,6632227765712237288,1361370184.692048,-15356,-936,1192,nan,0.000000
2,5,7,0,2215221,94298791,6632227765712239909,1361370184.692048,-16396,-1468,3040,nan,0.000000
2,5,7,0,2215221,94298791,6632227765712242530,1361370184.692048,-16736,-348,2564,nan,0.000000
2,5,7,0,2215221,94298791,6632227765712245151,1361370184.692048,-17628,-696,3468,nan,0.000000
2,5,7,0,2215221,94298791,6632227765712247772,1361370184.692048,-17124,-704,3388,nan,0.000000
2,5,8,0,2215221,94298823,6632227765712250393,1361370184.693300,-15096,16,4148,nan,0.000000
2,5,8,0,2215221,94298823,6632227765712253014,1361370184.693300,-15360,-1672,4048,nan,0.000000
2,5,8,0,2215221,94298823,6632227765712255635,1361370184.693300,-15784,-1212,3956,nan,0.000000
2,5,8,0,2215221,94298823,6632227765712258256,1361370184.693300,-15484,-1252,4056,nan,0.000000
2,5,8,0,2215221,94298823,6632227765712260877,1361370184.693300,-15444,-1564,3848,nan,0.000000
2,5,9,0,2215221,94298855,6632227765712263498,1361370184.693844,-15860,-1416,4176,nan,0.000000
2,5,9,0,2215221,94298855,6632227765712266119,1361370184.693844,-16208,-1304,4516,nan,0.000000
2,5,9,0,2215221,94298855,6632227765712268740,1361370184.693844,-16984,-2056,5068,nan,0.000000
2,5,9,0,2215221,94298855,6632227765712271361,1361370184.693844,-17660,-32,4356,nan,0.000000
2,5,9,0,2215221,94298855,6632227765712273982,1361370184.693844,-15608,948,4152,nan,0.000000
2,5,10,0,2215221,94298887,6632227765712276603,1361370187.169630,-15008,-344,3368,nan,0.000000
2,5,10,0,2215221,94298887,6632227765712279224,1361370187.169630,-16560,-268,2448,nan,0.000000
2,5,10,0,2215221,94298887,6632227765712281845,1361370187.169630,-17220,2132,3124,nan,0.000000
2,5,10,0,2215221,94298887,6632227765712284466,1361370187.169630,-16400,-484,3288,nan,0.000000
2,5,10,0,2215221,94298887,6632227765712287087,1361370187.169630,-15288,-1360,2964,nan,0.000000
1,5,11,0,2296539,94380019,-8067647884343957491,1361370187.171284,-16300,-964,3224,nan,0.000000
1,5,11,0,2296539,94380019,-8067647884343954870,1361370187.171284,-15996,-2452,3676,nan,0.000000
2,5,12,0,2296539,94380051,-8067647884343952249,1361370187.171896,-15268,-2420,2816,nan,0.000000
2,5,12,0,2296539,94380051,-8067647884343949628,1361370187.171896,-16140,-3532,3776,nan,0.000000
2,5,12,0,2296539,94380051,-8067647884343947007,1361370187.171896,-16652,-2628,4108,nan,0.000000
2,5,12,0,2296539,94380051,-8067647884343944386,1361370187.171896,-17680,-3104,4244,nan,0.000000
2,5,12,0,2296539,94380051,-8067647884343941765,1361370187.171896,-15948,-828,2156,nan,0.000000
2,5,13,0,2296539,94380083,-8067647884343939144,1361370187.173304,-15084,-56,3100,nan,0.000000
2,5,13,0,2296539,94380083,-8067647884343936523,1361370187.173304,-16352,232,4236,nan,0.000000
2,5,13,0,2296539,94380083,-8067647884343933902,1361370187.173304,-17516,-908,3604,nan,0.000000
2,5,13,0,2296539,94380083,-8067647884343931281,1361370187.173304,-15204,-8,3908,nan,0.000000
2,5,13,0,2296539,94380083,-8067647884343928660,1361370187.173304,-15000,308,4836,nan,0.000000
2,5,14,0,2296539,94380115,-8067647884343926039,1361370187.175567,-15612,-1352,4304,nan,0.000000
2,5,14,0,2296539,94380115,-8067647884343923418,1361370187.175567,-15900,-1768,4704,nan,0.000000
2,5,14,0,2296539,94380115,-8067647884343920797,1361370187.175567,-14676,-1452,5472,nan,0.000000
2,5,14,0,2296539,94380115,-8067647884343918176,1361370187.175567,-15636,-16,5264,nan,0.000000
2,5,14,0,2296539,94380115,-8067647884343915555,1361370187.175567,-15360,-1808,6308,nan,0.000000
2,5,15,0,2296539,94380147,-8067647884343912934,1361370187.176393,-16288,-3180,7592,nan,0.000000
2,5,15,0,2296539,94380147,-8067647884343910313,1361370187.176393,-20024,2612,4624,nan,0.000000
2,5,15,0,2296539,94380147,-8067647884343907692,1361370187.176393,-11348,-808,5420,nan,0.000000
2,5,15,0,2296539,94380147,-8067647884343905071,1361370187.176393,-17876,1216,1788,nan,0.000000
2,5,15,0,2296539,94380147,-8067647884343902450,1361370187.176393,-16292,944,5116,nan,0.000000
2,5,0,0,2296539,94380179,-8067647884343899829,1361370187.177158,-15032,-1012,3000,nan,0.000000
2,5,0,0,2296539,94380179,-8067647884343897208,1361370187.177158,-15524,-2096,3552,nan,0.000000
2,5,0,0,2296539,94380179,-8067647884343894587,1361370187.177158,-16440,-1072,3404,nan,0.000000
2,5,0,0,2296539,94380179,-8067647884343891966,1361370187.177158,-15596,-1804,3680,nan,0.000000
2,5,0,0,2296539,94380179,-8067647884343889345,1361370187.177158,-15372,-2556,3128,nan,0.000000
2,5,1,0,2296539,94380210,-8067647884343886724,1361370189.653573,-16304,-1712,3772,nan,0.000000
2,5,1,0,2296539,94380210,-8067647884343884103,1361370189.653573,-17848,-1956,4516,nan,0.000000
2,5,1,0,2296539,94380210,-8067647884343881482,1361370189.653573,-18916,-1120,3420,nan,0.000000
2,5,1,0,2296539,94380210,-8067647884343878861,1361370189.653573,-14736,1444,48,nan,0.000000
2,5,1,0,2296539,94380210,-8067647884343876240,1361370189.653573,-16848,-600,4724,nan,0.000000
1,5,2,0,2377856,94461392,-6624411355443446770,1361370189.654751,-16192,336,3216,nan,0.000000
1,5,2,0,2377856,94461392,-6624411355443444149,1361370189.654751,-14864,732,3748,nan,0.000000
2,5,3,0,2377856,94461424,-6624411355443441528,1361370189.655268,-15612,-516,3360,nan,0.000000
2,5,3,0,2377856,94461424,-6624411355443438907,1361370189.655268,-15916,-1124,3488,nan,0.000000
2,5,3,0,2377856,94461424,-6624411355443436286,1361370189.655268,-15584,-508,3956,nan,0.000000
2,5,3,0,2377856,94461424,-6624411355443433665,1361370189.655268,-15384,-1108,4504,nan,0.000000
2,5,3,0,2377856,94461424,-6624411355443431044,1361370189.655268,-15976,-1980,4064,nan,0.000000
2,5,4,0,2377856,94461456,-6624411355443428423,1361370189.656186,-16660,-1992,5180,nan,0.000000
2,5,4,0,2377856,94461456,-6624411355443425802,1361370189.656186,-19076,1156,4268,nan,0.000000
2,5,4,0,2377856,94461456,-6624411355443423181,1361370189.656186,-15292,1308,3768,nan,0.000000
2,5,4,0,2377856,94461456,-6624411355443420560,1361370189.656186,-15556,-708,2184,nan,0.000000
2,5,4,0,2377856,94461456,-6624411355443417939,1361370189.656186,-17132,1180,2760,nan,0.000000
2,5,5,0,2377856,94461488,-6624411355443415318,1361370189.657292,-16148,680,3300,nan,0.000000
2,5,5,0,2377856,94461488,-6624411355443412697,1361370189.657292,-15188,-1464,2344,nan,0.000000
2,5,5,0,2377856,94461488,-6624411355443410076,1361370189.657292,-15672,-2200,4136,nan,0.000000
2,5,5,0,2377856,94461488,-6624411355443407455,1361370189.657292,-15932,-1956,4376,nan,0.000000
2,5,5,0,2377856,94461488,-6624411355443404834,1361370189.657292,-15592,-1472,3316,nan,0.000000
2,5,6,0,2377856,94461520,-6624411355443402213,1361370189.657997,-16032,-2200,2908,nan,0.000000
2,5,6,0,2377856,94461520,-6624411355443399592,1361370189.657997,-16992,-2424,3692,nan,0.000000
2,5,6,0,2377856,94461520,-6624411355443396971,1361370189.657997,-19584,-3176,4804,nan,0.000000
2,5,6,0,2377856,94461520,-6624411355443394350,1361370189.657997,-15184,328,308,nan,0.000000
2,5,6,0,2377856,94461520,-6624411355443391729,1361370189.657997,-15408,1884,3324,nan,0.000000
2,5,7,0,2377856,94461552,-6624411355443389108,1361370189.659161,-17464,-1544,3756,nan,0.000000
2,5,7,0,2377856,94461552,-6624411355443386487,1361370189.659161,-16396,-748,3112,nan,0.000000
2,5,7,0,2377856,94461552,-6624411355443383866,1361370189.659161,-14432,1320,3896,nan,0.000000
2,5,7,0,2377856,94461552,-6624411355443381245,1361370189.659161,-15512,-1740,4640,nan,0.000000
2,5,7,0,2377856,94461552,-6624411355443378624,1361370189.659161,-16044,-1120,4304,nan,0.000000
2,5,8,0,2377856,94461584,-6624411355443376003,1361370192.133530,-15448,-480,4864,nan,0.000000
2,5,8,0,2377856,94461584,-6624411355443373382,1361370192.133530,-14956,476,4648,nan,0.000000
2,5,8,0,2377856,94461584,-6624411355443370761,1361370192.133530,-15748,-1524,5360,nan,0.000000
2,5,8,0,2377856,94461584,-6624411355443368140,1361370192.133530,-15684,-2588,6240,nan,0.000000
2,5,8,0,2377856,94461584,-6624411355443365519,1361370192.133530,-17164,596,5208,nan,0.000000
1,5,9,0,2459174,94542661,2887612210446925843,1361370192.135173,-13472,-252,4252,nan,0.000000
1,5,9,0,2459174,94542661,2887612210446928464,1361370192.135173,-16992,636,2052,nan,0.000000
2,5,10,0,2459174,94542693,2887612210446931085,1361370192.135713,-16416,1212,4116,nan,0.000000
2,5,10,0,2459174,94542693,2887612210446933706,1361370192.135713,-15620,-564,2956,nan,0.000000
2,5,10,0,2459174,94542693,2887612210446936327,1361370192.135713,-15620,-2480,2988,nan,0.000000
2,5,10,0,2459174,94542693,2887612210446938948,1361370192.135713,-16324,-584,3112,nan,0.000000
2,5,10,0,2459174,94542693,2887612210446941569,1361370192.135713,-15928,-1708,3488,nan,0.000000
2,5,11,0,2459174,94542725,2887612210446944190,1361370192.137280,-15592,-2032,2656,nan,0.000000
2,5,11,0,2459174,94542725,2887612210446946811,1361370192.137280,-16240,-3376,3128,nan,0.000000
2,5,11,0,2459174,94542725,2887612210446949432,1361370192.137280,-16600,-2380,2880,nan,0.000000
2,5,11,0,2459174,94542725,2887612210446952053,1361370192.137280,-19556,-3020,4348,nan,0.000000
2,5,11,0,2459174,94542725,2887612210446954674,1361370192.137280,-15336,-284,688,nan,0.000000
2,5,12,0,2459174,94542756,2887612210446957295,1361370192.138146,-15452,1172,3828,nan,0.000000
2,5,12,0,2459174,94542756,2887612210446959916,1361370192.138146,-16396,-1088,4332,nan,0.000000
2,5,12,0,2459174,94542756,2887612210446962537,1361370192.138146,-16508,-996,3552,nan,0.000000
2,5,12,0,2459174,94542756,2887612210446965158,1361370192.138146,-14640,884,4100,nan,0.000000
2,5,12,0,2459174,94542756,2887612210446967779,1361370192.138146,-15820,-584,4696,nan,0.000000
2,5,13,0,2459174,94542789,2887612210446970400,1361370192.138901,-16028,-1604,4468,nan,0.000000
2,5,13,0,2459174,94542789,2887612210446973021,1361370192.138901,-15200,-1148,4708,nan,0.000000
2,5,13,0,2459174,94542789,2887612210446975642,1361370192.138901,-15184,-452,4664,nan,0.000000
2,5,13,0,2459174,94542789,2887612210446978263,1361370192.138901,-15560,-848,4728,nan,0.000000
2,5,13,0,2459174,94542789,2887612210446980884,1361370192.138901,-15996,-2068,5296,nan,0.000000
2,5,14,0,2459174,94542820,2887612210446983505,1361370192.139603,-16564,-720,5140,nan,0.000000
2,5,14,0,2459174,94542820,2887612210446986126,1361370192.139603,-17420,-32,4932,nan,0.000000
2,5,14,0,2459174,94542820,2887612210446988747,1361370192.139603,-16436,992,4700,nan,0.000000
2,5,14,0,2459174,94542820,2887612210446991368,1361370192.139603,-14992,-344,3844,nan,0.000000
2,5,14,0,2459174,94542820,2887612210446993989,1361370192.139603,-16196,104,2316,nan,0.000000
2,5,15,0,2459174,94542853,2887612210446996610,1361370194.615442,-16920,840,3328,nan,0.000000
2,5,15,0,2459174,94542853,2887612210446999231,1361370194.615442,-15544,-412,3820,nan,0.000000
2,5,15,0,2459174,94542853,2887612210447001852,1361370194.615442,-15476,-1848,3544,nan,0.000000
2,5,15,0,2459174,94542853,2887612210447004473,1361370194.615442,-15736,-976,4076,nan,0.000000
2,5,15,0,2459174,94542853,2887612210447007094,1361370194.615442,-15444,-2176,4236,nan,0.000000
1,5,0,0,2540490,94623982,-1437100187779399667,1361370194.616753,-16252,-3864,4084,nan,0.000000
1,5,0,0,2540490,94623982,-1437100187779397046,1361370194.616753,-17168,-1916,3364,nan,0.000000
2,5,1,0,2540490,94624014,-1437100187779394425,1361370194.617320,-17812,-1000,3156,nan,0.000000
2,5,1,0,2540490,94624014,-1437100187779391804,1361370194.617320,-16476,-864,1232,nan,0.000000
2,5,1,0,2540490,94624014,-1437100187779389183,1361370194.617320,-15624,1728,2652,nan,0.000000
2,5,1,0,2540490,94624014,-1437100187779386562,1361370194.617320,-17008,-1084,3828,nan,0.000000
2,5,1,0,2540490,94624014,-1437100187779383941,1361370194.617320,-16560,-1056,4472,nan,0.000000
2,5,2,0,2540490,94624046,-1437100187779381320,1361370194.618525,-14732,948,3664,nan,0.000000
2,5,2,0,2540490,94624046,-1437100187779378699,1361370194.618525,-15516,-516,4712,nan,0.000000
2,5,2,0,2540490,94624046,-1437100187779376078,1361370194.618525,-15768,-1668,4352,nan,0.000000
2,5,2,0,2540490,94624046,-1437100187779373457,1361370194.618525,-15464,-552,4432,nan,0.000000
2,5,2,0,2540490,94624046,-1437100187779370836,1361370194.618525,-15616,-1284,4732,nan,0.000000
2,5,3,0,2540490,94624078,-1437100187779368215,1361370194.619362,-15468,-1356,4528,nan,0.000000
2,5,3,0,2540490,94624078,-1437100187779365594,1361370194.619362,-15796,-2736,5280,nan,0.000000
2,5,3,0,2540490,94624078,-1437100187779362973,1361370194.619362,-16260,-528,5584,nan,0.000000
2,5,3,0,2540490,94624078,-1437100187779360352,1361370194.619362,-18032,28,4360,nan,0.000000
2,5,3,0,2540490,94624078,-1437100187779357731,1361370194.619362,-15652,-376,5612,nan,0.000000
2,5,4,0,2540490,94624110,-1437100187779355110,1361370194.620047,-15172,336,2876,nan,0.000000
2,5,4,0,2540490,94624110,-1437100187779352489,1361370194.620047,-16360,-448,2228,nan,0.000000
2,5,4,0,2540490,94624110,-1437100187779349868,1361370194.620047,-17368,1764,2504,nan,0.000000
2,5,4,0,2540490,94624110,-1437100187779347247,1361370194.620047,-15760,-1436,3048,nan,0.000000
2,5,4,0,2540490,94624110,-1437100187779344626,1361370194.620047,-15768,-1404,2360,nan,0.000000
2,5,5,0,2540490,94624142,-1437100187779342005,1361370194.621055,-16444,-716,3188,nan,0.000000
2,5,5,0,2540490,94624142,-1437100187779339384,1361370194.621055,-15996,-1868,3064,nan,0.000000
2,5,5,0,2540490,94624142,-1437100187779336763,1361370194.621055,-15948,-2284,2636,nan,0.000000
2,5,5,0,2540490,94624142,-1437100187779334142,1361370194.621055,-16524,-2416,2876,nan,0.000000
2,5,5,0,2540490,94624142,-1437100187779331521,1361370194.621055,-16212,-3084,3020,nan,0.000000
2,5,6,0,2540490,94624174,-1437100187779328900,1361370197.127357,-17648,-1440,3056,nan,0.000000
2,5,6,0,2540490,94624174,-1437100187779326279,1361370197.127357,-15976,-2260,3164,nan,0.000000
2,5,6,0,2540490,94624174,-1437100187779323658,1361370197.127357,-16152,-812,2484,nan,0.000000
2,5,6,0,2540490,94624174,-1437100187779321037,1361370197.127357,-15560,1112,2912,nan,0.000000
2,5,6,0,2540490,94624174,-1437100187779318416,1361370197.127357,-15736,288,2944,nan,0.000000
1,5,7,0,2621804,94706314,6632725793141288971,1361370197.129103,-16728,-1004,4176,nan,0.000000
1,5,7,0,2621804,94706314,6632725793141291592,1361370197.129103,-15816,-288,3824,nan,0.000000
2,5,8,0,2621804,94706346,6632725793141294213,1361370197.129700,-15452,976,4124,nan,0.000000
2,5,8,0,2621804,94706346,6632725793141296834,1361370197.129700,-15904,-496,4908,nan,0.000000
2,5,8,0,2621804,94706346,6632725793141299455,1361370197.129700,-15612,284,4956,nan,0.000000
2,5,8,0,2621804,94706346,6632725793141302076,1361370197.129700,-15388,-1216,5140,nan,0.000000
2,5,8,0,2621804,94706346,6632725793141304697,1361370197.129700,-15524,648,4520,nan,0.000000
2,5,9,0,2621804,94706377,6632725793141307318,1361370197.131121,-15800,-1272,5528,nan,0.000000
2,5,9,0,2621804,94706377,6632725793141309939,1361370197.131121,-16036,-840,5704,nan,0.000000
2,5,9,0,2621804,94706377,6632725793141312560,1361370197.131121,-16184,-48,5284,nan,0.000000
2,5,9,0,2621804,94706377,6632725793141315181,1361370197.131121,-15816,628,4840,nan,0.000000
2,5,9,0,2621804,94706377,6632725793141317802,1361370197.131121,-16108,768,4316,nan,0.000000
2,5,10,0,2621804,94706410,6632725793141320423,1361370197.131890,-16184,616,3496,nan,0.000000
2,5,10,0,2621804,94706410,6632725793141323044,1361370197.131890,-16296,1080,2972,nan,0.000000
2,5,10,0,2621804,94706410,6632725793141325665,1361370197.131890,-16508,-468,2460,nan,0.000000
2,5,10,0,2621804,94706410,6632725793141328286,1361370197.131890,-15744,-1368,2208,nan,0.000000
2,5,10,0,2621804,94706410,6632725793141330907,1361370197.131890,-16296,-1056,2192,nan,0.000000
2,5,11,0,2621804,94706441,6632725793141333528,1361370197.133013,-16348,-776,2352,nan,0.000000
2,5,11,0,2621804,94706441,6632725793141336149,1361370197.133013,-16556,-1172,2656,nan,0.000000
2,5,11,0,2621804,94706441,6632725793141338770,1361370197.133013,-15948,-1220,2336,nan,0.000000
2,5,11,0,2621804,94706441,6632725793141341391,1361370197.133013,-16028,-1020,2376,nan,0.000000
2,5,11,0,2621804,94706441,6632725793141344012,1361370197.133013,-16544,-1668,2952,nan,0.000000
2,5,12,0,2621804,94706474,6632725793141346633,1361370197.134058,-16944,-1796,3128,nan,0.000000
2,5,12,0,2621804,94706474,6632725793141349254,1361370197.134058,-17868,-2736,2652,nan,0.000000
2,5,12,0,2621804,94706474,6632725793141351875,1361370197.134058,-16780,-1044,1200,nan,0.000000
2,5,12,0,2621804,94706474,6632725793141354496,1361370197.134058,-15180,132,1620,nan,0.000000
2,5,12,0,2621804,94706474,6632725793141357117,1361370197.134058,-16028,860,2372,nan,0.000000
2,5,13,0,2621804,94706505,6632725793141359738,1361370199.579075,-16856,844,1884,nan,0.000000
2,5,13,0,2621804,94706505,6632725793141362359,1361370199.579075,-16452,184,2488,nan,0.000000
2,5,13,0,2621804,94706505,6632725793141364980,1361370199.579075,-15864,304,2528,nan,0.000000
2,5,13,0,2621804,94706505,6632725793141367601,1361370199.579075,-16128,-872,2952,nan,0.000000
2,5,13,0,2621804,94706505,6632725793141370222,1361370199.579075,-15688,-880,3336,nan,0.000000
1,5,14,0,2703118,94786617,-5185411182634247161,1361370199.580632,-15916,-1048,4172,nan,0.000000
1,5,14,0,2703118,94786617,-5185411182634244540,1361370199.580632,-15548,164,4876,nan,0.000000
2,5,15,0,2703118,94786649,-5185411182634241919,1361370199.581242,-17304,-1628,5652,nan,0.000000
2,5,15,0,2703118,94786649,-5185411182634239298,1361370199.581242,-20072,1524,2060,nan,0.000000
2,5,15,0,2703118,94786649,-5185411182634236677,1361370199.581242,-14664,652,3700,nan,0.000000
2,5,15,0,2703118,94786649,-5185411182634234056,1361370199.581242,-15648,1152,-440,nan,0.000000
2,5,15,0,2703118,94786649,-5185411182634231435,1361370199.581242,-16924,160,1376,nan,0.000000
2,5,0,0,2703118,94786681,-5185411182634228814,1361370199.582591,-16208,-284,776,nan,0.000000
2,5,0,0,2703118,94786681,-5185411182634226193,1361370199.582591,-16100,-448,864,nan,0.000000
2,5,0,0,2703118,94786681,-5185411182634223572,1361370199.582591,-16740,-476,1268,nan,0.000000
2,5,0,0,2703118,94786681,-5185411182634220951,1361370199.582591,-16344,-192,1224,nan,0.000000
2,5,0,0,2703118,94786681,-5185411182634218330,1361370199.582591,-15904,-1568,1452,nan,0.000000
2,5,1,0,2703118,94786713,-5185411182634215709,1361370199.583738,-16312,-1832,1988,nan,0.000000
2,5,1,0,2703118,94786713,-5185411182634213088,1361370199.583738,-16172,-1756,1984,nan,0.000000
2,5,1,0,2703118,94786713,-5185411182634210467,1361370199.583738,-16380,-2216,2588,nan,0.000000
2,5,1,0,2703118,94786713,-5185411182634207846,1361370199.583738,-15916,-2160,3448,nan,0.000000
2,5,1,0,2703118,94786713,-5185411182634205225,1361370199.583738,-15752,-3084,3372,nan,0.000000
2,5,2,0,2703118,94786745,-5185411182634202604,1361370199.584923,-17564,-3660,3440,nan,0.000000
2,5,2,0,2703118,94786745,-5185411182634199983,1361370199.584923,-17020,-1536,2096,nan,0.000000
2,5,2,0,2703118,94786745,-5185411182634197362,1361370199.584923,-16620,-760,2392,nan,0.000000
2,5,2,0,2703118,94786745,-5185411182634194741,1361370199.584923,-15380,608,1832,nan,0.000000
2,5,2,0,2703118,94786745,-5185411182634192120,1361370199.584923,-17036,1512,3396,nan,0.000000
2,5,3,0,2703118,94786776,-5185411182634189499,1361370199.585635,-17176,-1816,3340,nan,0.000000
2,5,3,0,2703118,94786776,-5185411182634186878,1361370199.585635,-14804,844,3396,nan,0.000000
2,5,3,0,2703118,94786776,-5185411182634184257,1361370199.585635,-15368,-36,4116,nan,0.000000
2,5,3,0,2703118,94786776,-5185411182634181636,1361370199.585635,-15564,-540,4120,nan,0.000000
2,5,3,0,2703118,94786776,-5185411182634179015,1361370199.585635,-15432,-696,4360,nan,0.000000
2,5,4,0,2703118,94786809,-5185411182634176394,1361370202.061171,-16144,288,4324,nan,0.000000
2,5,4,0,2703118,94786809,-5185411182634173773,1361370202.061171,-15576,-328,4996,nan,0.000000
2,5,4,0,2703118,94786809,-5185411182634171152,1361370202.061171,-16520,-3140,5972,nan,0.000000
2,5,4,0,2703118,94786809,-5185411182634168531,1361370202.061171,-20292,1040,2648,nan,0.000000
2,5,4,0,2703118,94786809,-5185411182634165910,1361370202.061171,-14276,568,4384,nan,0.000000
1,5,5,0,2784432,94867935,-8929590234400431088,1361370202.061927,-16548,1024,2052,nan,0.000000
1,5,5,0,2784432,94867935,-8929590234400428467,1361370202.061927,-16084,-728,3072,nan,0.000000
2,5,6,0,2784432,94867967,-8929590234400425846,1361370202.062857,-15988,-1604,2112,nan,0.000000
2,5,6,0,2784432,94867967,-8929590234400423225,1361370202.062857,-16184,-588,2424,nan,0.000000
2,5,6,0,2784432,94867967,-8929590234400420604,1361370202.062857,-16224,-1112,2768,nan,0.000000
2,5,6,0,2784432,94867967,-8929590234400417983,1361370202.062857,-15616,-2332,2988,nan,0.000000
2,5,6,0,2784432,94867967,-8929590234400415362,1361370202.062857,-15528,-2416,2508,nan,0.000000
2,5,7,0,2784432,94867999,-8929590234400412741,1361370202.063372,-16736,-1344,2768,nan,0.000000
2,5,7,0,2784432,94867999,-8929590234400410120,1361370202.063372,-17872,-1600,3576,nan,0.000000
2,5,7,0,2784432,94867999,-8929590234400407499,1361370202.063372,-19516,-2044,2848,nan,0.000000
2,5,7,0,2784432,94867999,-8929590234400404878,1361370202.063372,-15440,628,260,nan,0.000000
2,5,7,0,2784432,94867999,-8929590234400402257,1361370202.063372,-15464,1572,3724,nan,0.000000
2,5,8,0,2784432,94868031,-8929590234400399636,1361370202.065006,-16296,-12,2796,nan,0.000000
2,5,8,0,2784432,94868031,-8929590234400397015,1361370202.065006,-15916,904,2904,nan,0.000000
2,5,8,0,2784432,94868031,-8929590234400394394,1361370202.065006,-15256,1160,3396,nan,0.000000
2,5,8,0,2784432,94868031,-8929590234400391773,1361370202.065006,-15616,108,3976,nan,0.000000
2,5,8,0,2784432,94868031,-8929590234400389152,1361370202.065006,-16024,-476,3520,nan,0.000000
2,5,9,0,2784432,94868062,-8929590234400386531,1361370202.065860,-16036,704,3908,nan,0.000000
2,5,9,0,2784432,94868062,-8929590234400383910,1361370202.065860,-15704,1156,4136,nan,0.000000
2,5,9,0,2784432,94868062,-8929590234400381289,1361370202.065860,-15716,-940,4332,nan,0.000000
2,5,9,0,2784432,94868062,-8929590234400378668,1361370202.065860,-15540,-1592,4712,nan,0.000000
2,5,9,0,2784432,94868062,-8929590234400376047,1361370202.065860,-16356,-460,4964,nan,0.000000
2,5,10,0,2784432,94868095,-8929590234400373426,1361370202.066334,-17424,524,3972,nan,0.000000
2,5,10,0,2784432,94868095,-8929590234400370805,1361370202.066334,-18240,2212,3364,nan,0.000000
2,5,10,0,2784432,94868095,-8929590234400368184,1361370202.066334,-14468,76,2580,nan,0.000000
2,5,10,0,2784432,94868095,-8929590234400365563,1361370202.066334,-16612,776,1448,nan,0.000000
2,5,10,0,2784432,94868095,-8929590234400362942,1361370202.066334,-17208,1748,1884,nan,0.000000
1,5,12,0,2865745,95030568,4325611769625148426,1361370207.025128,-16424,-1404,3664,nan,0.000000
1,5,12,0,2865745,95030568,4325611769625151047,1361370207.025128,-17228,-2288,3868,nan,0.000000
2,5,13,0,2865745,95030600,4325611769625153668,1361370207.025970,-18948,-2256,3492,nan,0.000000
2,5,13,0,2865745,95030600,4325611769625156289,1361370207.025970,-15548,640,540,nan,0.000000
2,5,13,0,2865745,95030600,4325611769625158910,1361370207.025970,-15208,1148,2832,nan,0.000000
2,5,13,0,2865745,95030600,4325611769625161531,1361370207.025970,-17508,-8,2544,nan,0.000000
2,5,13,0,2865745,95030600,4325611769625164152,1361370207.025970,-16348,364,2884,nan,0.000000
2,5,14,0,2865745,95030632,4325611769625166773,1361370207.027103,-15240,768,3236,nan,0.000000
2,5,14,0,2865745,95030632,4325611769625169394,1361370207.027103,-15360,332,3528,nan,0.000000
2,5,14,0,2865745,95030632,4325611769625172015,1361370207.027103,-16212,-684,4124,nan,0.000000
2,5,14,0,2865745,95030632,4325611769625174636,1361370207.027103,-16308,788,3656,nan,0.000000
2,5,14,0,2865745,95030632,4325611769625177257,1361370207.027103,-16420,1000,4088,nan,0.000000
2,5,15,0,2865745,95030664,4325611769625179878,1361370207.027771,-15112,-208,4968,nan,0.000000
2,5,15,0,2865745,95030664,4325611769625182499,1361370207.027771,-15072,-536,4600,nan,0.000000
2,5,15,0,2865745,95030664,4325611769625185120,1361370207.027771,-15488,-308,4996,nan,0.000000
2,5,15,0,2865745,95030664,4325611769625187741,1361370207.027771,-15820,-700,5836,nan,0.000000
2,5,15,0,2865745,95030664,4325611769625190362,1361370207.027771,-16952,-36,3932,nan,0.000000
2,5,0,0,2865745,95030696,4325611769625192983,1361370207.028755,-18196,1660,4572,nan,0.000000
2,5,0,0,2865745,95030696,4325611769625195604,1361370207.028755,-15428,988,3904,nan,0.000000
2,5,0,0,2865745,95030696,4325611769625198225,1361370207.028755,-14576,696,2412,nan,0.000000
2,5,0,0,2865745,95030696,4325611769625200846,1361370207.028755,-16816,324,1288,nan,0.000000
2,5,0,0,2865745,95030696,4325611769625203467,1361370207.028755,-17356,-600,3532,nan,0.000000
2,5,1,0,2865745,95030728,4325611769625206088,1361370207.029482,-15012,-2200,2436,nan,0.000000
2,5,1,0,2865745,95030728,4325611769625208709,1361370207.029482,-15764,-1868,1968,nan,0.000000
2,5,1,0,2865745,95030728,4325611769625211330,1361370207.029482,-16356,-916,2968,nan,0.000000
2,5,1,0,2865745,95030728,4325611769625213951,1361370207.029482,-15832,-1232,2664,nan,0.000000
2,5,1,0,2865745,95030728,4325611769625216572,1361370207.029482,-16176,-2276,2168,nan,0.000000
2,5,2,0,2865745,95030760,4325611769625219193,1361370207.030786,-16368,-1036,3848,nan,0.000000
2,5,2,0,2865745,95030760,4325611769625221814,1361370207.030786,-18568,-3624,4404,nan,0.000000
2,5,2,0,2865745,95030760,4325611769625224435,1361370207.030786,-18604,-204,1524,nan,0.000000
2,5,2,0,2865745,95030760,4325611769625227056,1361370207.030786,-14108,1868,76,nan,0.000000
2,5,2,0,2865745,95030760,4325611769625229677,1361370207.030786,-16632,-524,3040,nan,0.000000
1,5,3,0,2947057,95030792,3752018496200312847,1361370207.031741,-16168,180,2936,nan,0.000000
1,5,3,15,2947057,95030792,3752018496200315468,1361370207.031741,-15024,388,3516,nan,0.000000
2,5,4,15,2947057,95030824,3752018496200318089,1361370207.032766,-15716,-456,3340,nan,0.000000
2,5,4,15,2947057,95030824,3752018496200320710,1361370207.032766,-16328,-1196,3484,nan,0.000000
2,5,4,15,2947057,95030824,3752018496200323331,1361370207.032766,-15164,216,4008,nan,0.000000
2,5,4,15,2947057,95030824,3752018496200325952,1361370207.032766,-15692,764,4684,nan,0.000000
2,5,4,15,2947057,95030824,3752018496200328573,1361370207.032766,-15816,-1800,4544,nan,0.000000
2,5,5,15,2947057,95030856,3752018496200331194,1361370207.033245,-15656,-2332,5324,nan,0.000000
2,5,5,15,2947057,95030856,3752018496200333815,1361370207.033245,-17076,292,4912,nan,0.000000
2,5,5,15,2947057,95030856,3752018496200336436,1361370207.033245,-18416,1088,4184,nan,0.000000
2,5,5,15,2947057,95030856,3752018496200339057,1361370207.033245,-15040,724,5332,nan,0.000000
2,5,5,15,2947057,95030856,3752018496200341678,1361370207.033245,-14748,816,1856,nan,0.000000
2,5,6,15,2947057,95030888,3752018496200344299,1361370207.034807,-17440,988,3020,nan,0.000000
2,5,6,15,2947057,95030888,3752018496200346920,1361370207.034807,-16844,948,3612,nan,0.000000
2,5,6,15,2947057,95030888,3752018496200349541,1361370207.034807,-14516,-2064,3020,nan,0.000000
2,5,6,15,2947057,95030888,3752018496200352162,1361370207.034807,-15744,-2248,3400,nan,0.000000
2,5,6,15,2947057,95030888,3752018496200354783,1361370207.034807,-16572,-108,3076,nan,0.000000
2,5,7,15,2947057,95030920,3752018496200357404,1361370207.035452,-15820,-2368,3888,nan,0.000000
2,5,7,15,2947057,95030920,3752018496200360025,1361370207.035452,-15672,-3044,3340,nan,0.000000
2,5,7,15,2947057,95030920,3752018496200362646,1361370207.035452,-16000,-2176,3180,nan,0.000000
2,5,7,15,2947057,95030920,3752018496200365267,1361370207.035452,-16892,-1832,3936,nan,0.000000
2,5,7,15,2947057,95030920,3752018496200367888,1361370207.035452,-18976,-3816,4496,nan,0.000000
2,5,8,15,2947057,95030952,3752018496200370509,1361370207.036792,-15128,-216,656,nan,0.000000
2,5,8,15,2947057,95030952,3752018496200373130,1361370207.036792,-15040,1128,2768,nan,0.000000
2,5,8,15,2947057,95030952,3752018496200375751,1361370207.036792,-17924,-1164,3640,nan,0.000000
2,5,8,15,2947057,95030952,3752018496200378372,1361370207.036792,-16296,-1384,3384,nan,0.000000
2,5,8,15,2947057,95030952,3752018496200380993,1361370207.036792,-14668,304,3576,nan,0.000000
2,5,9,15,2947057,95030984,3752018496200383614,1361370209.505097,-15184,-364,3788,nan,0.000000
2,5,9,15,2947057,95030984,3752018496200386235,1361370209.505097,-16140,-1336,3164,nan,0.000000
2,5,9,15,2947057,95030984,3752018496200388856,1361370209.505097,-15624,-1220,4080,nan,0.000000
2,5,9,15,2947057,95030984,3752018496200391477,1361370209.505097,-15232,-1420,4460,nan,0.000000
2,5,9,15,2947057,95030984,3752018496200394098,1361370209.505097,-15232,104,3960,nan,0.000000
1,5,10,0,3028371,95111886,6632897331383553038,1361370209.506745,-18796,832,4180,nan,0.000000
1,5,10,1,3028371,95111886,6632897331383555659,1361370209.506745,-13736,-80,4028,nan,0.000000
2,5,11,1,3028371,95111918,6632897331383558280,1361370209.507540,-16560,1236,1904,nan,0.000000
2,5,11,1,3028371,95111918,6632897331383560901,1361370209.507540,-17076,1540,3504,nan,0.000000
2,5,11,1,3028371,95111918,6632897331383563522,1361370209.507540,-16820,796,2388,nan,0.000000
2,5,11,1,3028371,95111918,6632897331383566143,1361370209.507540,-15616,-964,2980,nan,0.000000
2,5,11,1,3028371,95111918,6632897331383568764,1361370209.507540,-16168,-104,2740,nan,0.000000
2,5,12,1,3028371,95111950,6632897331383571385,1361370209.508708,-16832,-364,2468,nan,0.000000
2,5,12,1,3028371,95111950,6632897331383574006,1361370209.508708,-16524,-2060,2396,nan,0.000000
2,5,12,1,3028371,95111950,6632897331383576627,1361370209.508708,-16352,-2716,1616,nan,0.000000
2,5,12,1,3028371,95111950,6632897331383579248,1361370209.508708,-17460,-492,3028,nan,0.000000
2,5,12,1,3028371,95111950,6632897331383581869,1361370209.508708,-14812,-60,2804,nan,0.000000
2,5,13,1,3028371,95111982,6632897331383584490,1361370209.509743,-15084,-1600,2616,nan,0.000000
2,5,13,1,3028371,95111982,6632897331383587111,1361370209.509743,-15860,-136,4004,nan,0.000000
2,5,13,1,3028371,95111982,6632897331383589732,1361370209.509743,-16320,-728,4068,nan,0.000000
2,5,13,1,3028371,95111982,6632897331383592353,1361370209.509743,-16864,-852,3972,nan,0.000000
2,5,13,1,3028371,95111982,6632897331383594974,1361370209.509743,-16868,-1148,4252,nan,0.000000
2,5,14,1,3028371,95112014,6632897331383597595,1361370209.510733,-15744,-732,4712,nan,0.000000
2,5,14,1,3028371,95112014,6632897331383600216,1361370209.510733,-15816,-680,4852,nan,0.000000
2,5,14,1,3028371,95112014,6632897331383602837,1361370209.510733,-15524,-440,4892,nan,0.000000
2,5,14,1,3028371,95112014,6632897331383605458,1361370209.510733,-15784,-360,4468,nan,0.000000
2,5,14,1,3028371,95112014,6632897331383608079,1361370209.510733,-16644,-632,4712,nan,0.000000
2,5,15,1,3028371,95112046,6632897331383610700,1361370209.511391,-16428,-316,5596,nan,0.000000
2,5,15,1,3028371,95112046,6632897331383613321,1361370209.511391,-16040,1408,4892,nan,0.000000
2,5,15,1,3028371,95112046,6632897331383615942,1361370209.511391,-15820,528,4648,nan,0.000000
2,5,15,1,3028371,95112046,6632897331383618563,1361370209.511391,-15248,724,2744,nan,0.000000
2,5,15,1,3028371,95112046,6632897331383621184,1361370209.511391,-17172,720,1960,nan,0.000000
2,5,0,1,3028371,95112078,6632897331383623805,1361370211.987012,-16652,516,2428,nan,0.000000
2,5,0,1,3028371,95112078,6632897331383626426,1361370211.987012,-15392,-1236,2176,nan,0.000000
2,5,0,1,3028371,95112078,6632897331383629047,1361370211.987012,-16004,-1424,2400,nan,0.000000
2,5,0,1,3028371,95112078,6632897331383631668,1361370211.987012,-16544,-1180,2844,nan,0.000000
2,5,0,1,3028371,95112078,6632897331383634289,1361370211.987012,-16164,-1516,3264,nan,0.000000
1,5,1,0,3109683,95193203,-9221070776721769463,1361370211.988734,-16144,-2180,3472,nan,0.000000
1,5,1,0,3109683,95193203,-9221070776721766842,1361370211.988734,-16876,-3160,4208,nan,0.000000
2,5,2,0,3109683,95193241,-9221070776721764221,1361370211.989119,-18836,-2860,5072,nan,0.000000
2,5,2,0,3109683,95193241,-9221070776721761600,1361370211.989119,-15692,-200,1220,nan,0.000000
2,5,2,0,3109683,95193241,-9221070776721758979,1361370211.989119,-15064,1496,1680,nan,0.000000
2,5,2,0,3109683,95193241,-9221070776721756358,1361370211.989119,-16992,-504,4008,nan,0.000000
2,5,2,0,3109683,95193241,-9221070776721753737,1361370211.989119,-16992,-1280,2760,nan,0.000000
2,5,3,0,3109683,95193273,-9221070776721751116,1361370211.990840,-14616,1044,3024,nan,0.000000
2,5,3,0,3109683,95193273,-9221070776721748495,1361370211.990840,-15404,-232,3808,nan,0.000000
2,5,3,0,3109683,95193273,-9221070776721745874,1361370211.990840,-16048,-1248,4564,nan,0.000000
2,5,3,0,3109683,95193273,-9221070776721743253,1361370211.990840,-15328,-84,3976,nan,0.000000
2,5,3,0,3109683,95193273,-9221070776721740632,1361370211.990840,-15408,624,4488,nan,0.000000
2,5,4,0,3109683,95193305,-9221070776721738011,1361370211.991996,-15500,-672,4920,nan,0.000000
2,5,4,0,3109683,95193305,-9221070776721735390,1361370211.991996,-15936,-2184,5768,nan,0.000000
2,5,4,0,3109683,95193305,-9221070776721732769,1361370211.991996,-18220,692,4872,nan,0.000000
2,5,4,0,3109683,95193305,-9221070776721730148,1361370211.991996,-19672,3692,2736,nan,0.000000
2,5,4,0,3109683,95193305,-9221070776721727527,1361370211.991996,-13220,-524,2900,nan,0.000000
2,5,5,0,3109683,95193337,-9221070776721724906,1361370211.992778,-17072,2800,636,nan,0.000000
2,5,5,0,3109683,95193337,-9221070776721722285,1361370211.992778,-16492,616,2880,nan,0.000000
2,5,5,0,3109683,95193337,-9221070776721719664,1361370211.992778,-15636,-780,1788,nan,0.000000
2,5,5,0,3109683,95193337,-9221070776721717043,1361370211.992778,-15924,-1148,2204,nan,0.000000
2,5,5,0,3109683,95193337,-9221070776721714422,1361370211.992778,-16544,-8,2808,nan,0.000000
2,5,6,0,3109683,95193368,-9221070776721711801,1361370211.993711,-16100,-1344,3164,nan,0.000000
2,5,6,0,3109683,95193368,-9221070776721709180,1361370211.993711,-15476,-2884,3180,nan,0.000000
2,5,6,0,3109683,95193368,-9221070776721706559,1361370211.993711,-16124,-2576,2696,nan,0.000000
2,5,6,0,3109683,95193368,-9221070776721703938,1361370211.993711,-16228,-536,3476,nan,0.000000
2,5,6,0,3109683,95193368,-9221070776721701317,1361370211.993711,-18256,-2632,4792,nan,0.000000
2,5,7,0,3109683,95193401,-9221070776721698696,1361370214.468971,-18196,-660,3760,nan,0.000000
2,5,7,0,3109683,95193401,-9221070776721696075,1361370214.468971,-14636,2708,-288,nan,0.000000
2,5,7,0,3109683,95193401,-9221070776721693454,1361370214.468971,-16308,1016,4340,nan,0.000000
2,5,7,0,3109683,95193401,-9221070776721690833,1361370214.468971,-17020,-376,3280,nan,0.000000
2,5,7,0,3109683,95193401,-9221070776721688212,1361370214.468971,-15396,-688,3792,nan,0.000000
1,5,8,0,3190996,95274520,-2234185590888812530,1361370214.470514,-15384,72,4524,nan,0.000000
1,5,8,0,3190996,95274520,-2234185590888809909,1361370214.470514,-16212,-572,4432,nan,0.000000
2,5,9,0,3190996,95274552,-2234185590888807288,1361370214.471116,-15404,516,4448,nan,0.000000
2,5,9,0,3190996,95274552,-2234185590888804667,1361370214.471116,-15148,160,5312,nan,0.000000
2,5,9,0,3190996,95274552,-2234185590888802046,1361370214.471116,-15460,-1536,5228,nan,0.000000
2,5,9,0,3190996,95274552,-2234185590888799425,1361370214.471116,-15364,-2344,6376,nan,0.000000
2,5,9,0,3190996,95274552,-2234185590888796804,1361370214.471116,-18160,1228,4744,nan,0.000000
2,5,10,0,3190996,95274584,-2234185590888794183,1361370214.472098,-18916,2880,3864,nan,0.000000
2,5,10,0,3190996,95274584,-2234185590888791562,1361370214.472098,-12572,-2228,5440,nan,0.000000
2,5,10,0,3190996,95274584,-2234185590888788941,1361370214.472098,-16564,940,2152,nan,0.000000
2,5,10,0,3190996,95274584,-2234185590888786320,1361370214.472098,-17104,1548,4028,nan,0.000000
2,5,10,0,3190996,95274584,-2234185590888783699,1361370214.472098,-15204,-1320,3336,nan,0.000000
2,5,11,0,3190996,95274616,-2234185590888781078,1361370214.472924,-15228,-1736,3484,nan,0.000000
2,5,11,0,3190996,95274616,-2234185590888778457,1361370214.472924,-16884,-968,3068,nan,0.000000
2,5,11,0,3190996,95274616,-2234185590888775836,1361370214.472924,-16032,-1572,3316,nan,0.000000
2,5,11,0,3190996,95274616,-2234185590888773215,1361370214.472924,-14916,-2732,2728,nan,0.000000
2,5,11,0,3190996,95274616,-2234185590888770594,1361370214.472924,-16404,-2904,2636,nan,0.000000
2,5,12,0,3190996,95274648,-2234185590888767973,1361370214.473800,-17596,-1900,2204,nan,0.000000
2,5,12,0,3190996,95274648,-2234185590888765352,1361370214.473800,-19724,-1780,3300,nan,0.000000
2,5,12,0,3190996,95274648,-2234185590888762731,1361370214.473800,-14796,-72,224,nan,0.000000
2,5,12,0,3190996,95274648,-2234185590888760110,1361370214.473800,-16204,1348,3564,nan,0.000000
2,5,12,0,3190996,95274648,-2234185590888757489,1361370214.473800,-16324,420,3052,nan,0.000000
2,5,13,0,3190996,95274680,-2234185590888754868,1361370214.474646,-15908,1368,2352,nan,0.000000
2,5,13,0,3190996,95274680,-2234185590888752247,1361370214.474646,-15536,1044,3308,nan,0.000000
2,5,13,0,3190996,95274680,-2234185590888749626,1361370214.474646,-16236,340,3312,nan,0.000000
2,5,13,0,3190996,95274680,-2234185590888747005,1361370214.474646,-15992,-1732,3560,nan,0.000000
2,5,13,0,3190996,95274680,-2234185590888744384,1361370214.474646,-15160,-588,3892,nan,0.000000
2,5,14,0,3190996,95274712,-2234185590888741763,1361370216.950934,-15100,276,4016,nan,0.000000
2,5,14,0,3190996,95274712,-2234185590888739142,1361370216.950934,-16204,-1088,4072,nan,0.000000
2,5,14,0,3190996,95274712,-2234185590888736521,1361370216.950934,-16428,-2604,5956,nan,0.000000
2,5,14,0,3190996,95274712,-2234185590888733900,1361370216.950934,-17968,1708,4768,nan,0.000000
2,5,14,0,3190996,95274712,-2234185590888731279,1361370216.950934,-18196,292,3612,nan,0.000000
1,5,15,0,3272310,95355838,-1724947944957759473,1361370216.952072,-16252,2156,2136,nan,0.000000
1,5,15,0,3272310,95355838,-1724947944957756852,1361370216.952072,-16568,-892,2904,nan,0.000000
2,5,0,0,3272310,95355870,-1724947944957754231,1361370216.952813,-15552,-976,2560,nan,0.000000
2,5,0,0,3272310,95355870,-1724947944957751610,1361370216.952813,-15912,-1040,3124,nan,0.000000
2,5,0,0,3272310,95355870,-1724947944957748989,1361370216.952813,-15976,-752,3312,nan,0.000000
2,5,0,0,3272310,95355870,-1724947944957746368,1361370216.952813,-15520,-2428,2964,nan,0.000000
2,5,0,0,3272310,95355870,-1724947944957743747,1361370216.952813,-15888,-1916,2812,nan,0.000000
2,5,1,0,3272310,95355902,-1724947944957741126,1361370216.953511,-16540,-2528,2756,nan,0.000000
2,5,1,0,3272310,95355902,-1724947944957738505,1361370216.953511,-19336,-2204,3392,nan,0.000000
2,5,1,0,3272310,95355902,-1724947944957735884,1361370216.953511,-16728,-948,2080,nan,0.000000
2,5,1,0,3272310,95355902,-1724947944957733263,1361370216.953511,-14696,1372,1880,nan,0.000000
2,5,1,0,3272310,95355902,-1724947944957730642,1361370216.953511,-16736,1644,3404,nan,0.000000
2,5,2,0,3272310,95355934,-1724947944957728021,1361370216.954535,-17280,-860,3272,nan,0.000000
2,5,2,0,3272310,95355934,-1724947944957725400,1361370216.954535,-15480,1584,3256,nan,0.000000
2,5,2,0,3272310,95355934,-1724947944957722779,1361370216.954535,-15296,332,4368,nan,0.000000
2,5,2,0,3272310,95355934,-1724947944957720158,1361370216.954535,-15668,-384,3788,nan,0.000000
2,5,2,0,3272310,95355934,-1724947944957717537,1361370216.954535,-15784,-1192,4364,nan,0.000000
2,5,3,0,3272310,95355966,-1724947944957714916,1361370216.955189,-14976,76,4508,nan,0.000000
2,5,3,0,3272310,95355966,-1724947944957712295,1361370216.955189,-15100,-84,4684,nan,0.000000
2,5,3,0,3272310,95355966,-1724947944957709674,1361370216.955189,-16028,-1072,4880,nan,0.000000
2,5,3,0,3272310,95355966,-1724947944957707053,1361370216.955189,-16116,-1768,6072,nan,0.000000
2,5,3,0,3272310,95355966,-1724947944957704432,1361370216.955189,-17388,-100,5828,nan,0.000000
2,5,4,0,3272310,95355998,-1724947944957701811,1361370216.956554,-18064,0,4320,nan,0.000000
2,5,4,0,3272310,95355998,-1724947944957699190,1361370216.956554,-13944,-424,3372,nan,0.000000
2,5,4,0,3272310,95355998,-1724947944957696569,1361370216.956554,-17140,2192,1792,nan,0.000000
2,5,4,0,3272310,95355998,-1724947944957693948,1361370216.956554,-16368,152,3556,nan,0.000000
2,5,4,0,3272310,95355998,-1724947944957691327,1361370216.956554,-14820,-2036,3244,nan,0.000000
2,5,5,0,3272310,95356030,-1724947944957688706,1361370219.432954,-15648,-1116,3308,nan,0.000000
2,5,5,0,3272310,95356030,-1724947944957686085,1361370219.432954,-16108,-808,3724,nan,0.000000
2,5,5,0,3272310,95356030,-1724947944957683464,1361370219.432954,-15552,-1884,3708,nan,0.000000
2,5,5,0,3272310,95356030,-1724947944957680843,1361370219.432954,-15820,-2548,2992,nan,0.000000
2,5,5,0,3272310,95356030,-1724947944957678222,1361370219.432954,-16980,-2576,2960,nan,0.000000
1,5,6,0,3353623,95437153,-8354501681534079988,1361370219.434265,-15384,196,-172,nan,0.000000
1,5,6,0,3353623,95437153,-8354501681534077367,1361370219.434265,-14820,1320,4312,nan,0.000000
2,5,7,0,3353623,95437185,-8354501681534074746,1361370219.434826,-17144,-828,3548,nan,0.000000
2,5,7,0,3353623,95437185,-8354501681534072125,1361370219.434826,-15724,188,4076,nan,0.000000
2,5,7,0,3353623,95437185,-8354501681534069504,1361370219.434826,-14684,504,4828,nan,0.000000
2,5,7,0,3353623,95437185,-8354501681534066883,1361370219.434826,-15452,-396,4004,nan,0.000000
2,5,7,0,3353623,95437185,-8354501681534064262,1361370219.434826,-15300,-1124,4600,nan,0.000000
2,5,8,0,3353623,95437216,-8354501681534061641,1361370219.436147,-15616,-848,5156,nan,0.000000
2,5,8,0,3353623,95437216,-8354501681534059020,1361370219.436147,-15064,-1004,4488,nan,0.000000
2,5,8,0,3353623,95437216,-8354501681534056399,1361370219.436147,-15868,-1420,5196,nan,0.000000
2,5,8,0,3353623,95437216,-8354501681534053778,1361370219.436147,-16504,-2744,6464,nan,0.000000
2,5,8,0,3353623,95437216,-8354501681534051157,1361370219.436147,-18348,1820,4536,nan,0.000000
2,5,9,0,3353623,95437249,-8354501681534048536,1361370219.437099,-16008,744,4952,nan,0.000000
2,5,9,0,3353623,95437249,-8354501681534045915,1361370219.437099,-14996,-872,3216,nan,0.000000
2,5,9,0,3353623,95437249,-8354501681534043294,1361370219.437099,-16840,1812,2476,nan,0.000000
2,5,9,0,3353623,95437249,-8354501681534040673,1361370219.437099,-16668,1156,2888,nan,0.000000
2,5,9,0,3353623,95437249,-8354501681534038052,1361370219.437099,-15284,-1624,2848,nan,0.000000
2,5,10,0,3353623,95437281,-8354501681534035431,1361370219.437860,-15964,-392,2580,nan,0.000000
2,5,10,0,3353623,95437281,-8354501681534032810,1361370219.437860,-16704,-92,2660,nan,0.000000
2,5,10,0,3353623,95437281,-8354501681534030189,1361370219.437860,-15772,-2020,3136,nan,0.000000
2,5,10,0,3353623,95437281,-8354501681534027568,1361370219.437860,-15528,-2328,2756,nan,0.000000
2,5,10,0,3353623,95437281,-8354501681534024947,1361370219.437860,-16268,-1648,3324,nan,0.000000
2,5,11,0,3353623,95437313,-8354501681534022326,1361370219.438618,-17116,-2444,3672,nan,0.000000
2,5,11,0,3353623,95437313,-8354501681534019705,1361370219.438618,-19228,-768,3988,nan,0.000000
2,5,11,0,3353623,95437313,-8354501681534017084,1361370219.438618,-15384,-2116,952,nan,0.000000
2,5,11,0,3353623,95437313,-8354501681534014463,1361370219.438618,-14592,2304,2452,nan,0.000000
2,5,11,0,3353623,95437313,-8354501681534011842,1361370219.438618,-16576,1508,2692,nan,0.000000
2,5,12,0,3353623,95437345,-8354501681534009221,1361370221.912843,-17728,-2204,4300,nan,0.000000
2,5,12,0,3353623,95437345,-8354501681534006600,1361370221.912843,-15136,624,2980,nan,0.000000
2,5,12,0,3353623,95437345,-8354501681534003979,1361370221.912843,-15096,36,4372,nan,0.000000
2,5,12,0,3353623,95437345,-8354501681534001358,1361370221.912843,-16136,-1080,4224,nan,0.000000
2,5,12,0,3353623,95437345,-8354501681533998737,1361370221.912843,-15960,-1776,4800,nan,0.000000
1,5,13,0,3434937,95518471,-6626079269082313712,1361370221.914458,-14712,-728,5244,nan,0.000000
1,5,13,0,3434937,95518471,-6626079269082311091,1361370221.914458,-15752,-372,5436,nan,0.000000
2,5,14,0,3434937,95518503,-6626079269082308470,1361370221.916603,-17352,-1508,6932,nan,0.000000
2,5,14,0,3434937,95518503,-6626079269082305849,1361370221.916603,-18820,1684,5132,nan,0.000000
2,5,14,0,3434937,95518503,-6626079269082303228,1361370221.916603,-13868,212,4688,nan,0.000000
2,5,14,0,3434937,95518503,-6626079269082300607,1361370221.916603,-16392,900,2240,nan,0.000000
2,5,14,0,3434937,95518503,-6626079269082297986,1361370221.916603,-16496,1372,3744,nan,0.000000
2,5,15,0,3434937,95518535,-6626079269082295365,1361370221.917443,-16184,564,2192,nan,0.000000
2,5,15,0,3434937,95518535,-6626079269082292744,1361370221.917443,-15888,-864,2836,nan,0.000000
2,5,15,0,3434937,95518535,-6626079269082290123,1361370221.917443,-16184,-548,2684,nan,0.000000
2,5,15,0,3434937,95518535,-6626079269082287502,1361370221.917443,-16520,-596,2580,nan,0.000000
2,5,15,0,3434937,95518535,-6626079269082284881,1361370221.917443,-16540,-1976,2636,nan,0.000000
2,5,0,0,3434937,95518567,-6626079269082282260,1361370221.918181,-16048,-2316,1900,nan,0.000000
2,5,0,0,3434937,95518567,-6626079269082279639,1361370221.918181,-16128,-3492,1864,nan,0.000000
2,5,0,0,3434937,95518567,-6626079269082277018,1361370221.918181,-17796,-48,3968,nan,0.000000
2,5,0,0,3434937,95518567,-6626079269082274397,1361370221.918181,-15804,-2900,1648,nan,0.000000
2,5,0,0,3434937,95518567,-6626079269082271776,1361370221.918181,-15772,976,3580,nan,0.000000
2,5,1,0,3434937,95518598,-6626079269082269155,1361370221.919172,-15340,2572,2732,nan,0.000000
2,5,1,0,3434937,95518598,-6626079269082266534,1361370221.919172,-17088,-1716,4776,nan,0.000000
2,5,1,0,3434937,95518598,-6626079269082263913,1361370221.919172,-16492,572,3736,nan,0.000000
2,5,1,0,3434937,95518598,-6626079269082261292,1361370221.919172,-15700,-220,3608,nan,0.000000
2,5,1,0,3434937,95518598,-6626079269082258671,1361370221.919172,-16240,-712,4528,nan,0.000000
2,5,2,0,3434937,95518631,-6626079269082256050,1361370221.919977,-15944,-1080,4444,nan,0.000000
2,5,2,0,3434937,95518631,-6626079269082253429,1361370221.919977,-15784,-368,4140,nan,0.000000
2,5,2,0,3434937,95518631,-6626079269082250808,1361370221.919977,-15396,-580,5044,nan,0.000000
2,5,2,0,3434937,95518631,-6626079269082248187,1361370221.919977,-15444,-636,5752,nan,0.000000
2,5,2,0,3434937,95518631,-6626079269082245566,1361370221.919977,-15256,-1140,5968,nan,0.000000
2,5,3,0,3434937,95518663,-6626079269082242945,1361370224.394722,-16568,-1016,5940,nan,0.000000
2,5,3,0,3434937,95518663,-6626079269082240324,1361370224.394722,-16900,828,4700,nan,0.000000
2,5,3,0,3434937,95518663,-6626079269082237703,1361370224.394722,-16164,2376,5124,nan,0.000000
2,5,3,0,3434937,95518663,-6626079269082235082,1361370224.394722,-15300,308,3616,nan,0.000000
2,5,3,0,3434937,95518663,-6626079269082232461,1361370224.394722,-15760,28,2184,nan,0.000000
1,5,4,0,3516250,95599788,6634431188892988439,1361370224.396388,-15616,-1100,3060,nan,0.000000
1,5,4,0,3516250,95599788,6634431188892991060,1361370224.396388,-16096,-576,2600,nan,0.000000
2,5,5,0,3516250,95599820,6634431188892993681,1361370224.396735,-16192,-708,3336,nan,0.000000
2,5,5,0,3516250,95599820,6634431188892996302,1361370224.396735,-15744,-1316,3240,nan,0.000000
2,5,5,0,3516250,95599820,6634431188892998923,1361370224.396735,-16204,-1628,2660,nan,0.000000
2,5,5,0,3516250,95599820,6634431188893001544,1361370224.396735,-16512,-2924,2892,nan,0.000000
2,5,5,0,3516250,95599820,6634431188893004165,1361370224.396735,-19604,-2596,3616,nan,0.000000
2,5,6,0,3516250,95599852,6634431188893006786,1361370224.398428,-16784,32,996,nan,0.000000
2,5,6,0,3516250,95599852,6634431188893009407,1361370224.398428,-14772,792,2268,nan,0.000000
2,5,6,0,3516250,95599852,6634431188893012028,1361370224.398428,-17160,1176,4136,nan,0.000000
2,5,6,0,3516250,95599852,6634431188893014649,1361370224.398428,-16392,-1140,2816,nan,0.000000
2,5,6,0,3516250,95599852,6634431188893017270,1361370224.398428,-15336,1752,3312,nan,0.000000
2,5,7,0,3516250,95599884,6634431188893019891,1361370224.399225,-15668,-276,3824,nan,0.000000
2,5,7,0,3516250,95599884,6634431188893022512,1361370224.399225,-15820,-1408,3956,nan,0.000000
2,5,7,0,3516250,95599884,6634431188893025133,1361370224.399225,-15272,-1244,4076,nan,0.000000
2,5,7,0,3516250,95599884,6634431188893027754,1361370224.399225,-15308,-620,4716,nan,0.000000
2,5,7,0,3516250,95599884,6634431188893030375,1361370224.399225,-15568,288,4732,nan,0.000000
2,5,8,0,3516250,95599916,6634431188893032996,1361370224.400392,-16180,-1928,6092,nan,0.000000
2,5,8,0,3516250,95599916,6634431188893035617,1361370224.400392,-19008,-556,4400,nan,0.000000
2,5,8,0,3516250,95599916,6634431188893038238,1361370224.400392,-16488,1104,4160,nan,0.000000
2,5,8,0,3516250,95599916,6634431188893040859,1361370224.400392,-13512,-348,2700,nan,0.000000
2,5,8,0,3516250,95599916,6634431188893043480,1361370224.400392,-17056,516,432,nan,0.000000
2,5,9,0,3516250,95599948,6634431188893046101,1361370224.401492,-17776,480,4036,nan,0.000000
2,5,9,0,3516250,95599948,6634431188893048722,1361370224.401492,-15524,-1504,2812,nan,0.000000
2,5,9,0,3516250,95599948,6634431188893051343,1361370224.401492,-15468,-740,1940,nan,0.000000
2,5,9,0,3516250,95599948,6634431188893053964,1361370224.401492,-16708,292,2600,nan,0.000000
2,5,9,0,3516250,95599948,6634431188893056585,1361370224.401492,-15980,-164,3824,nan,0.000000
2,5,10,0,3516250,95599980,6634431188893059206,1361370226.878655,-15392,-1880,2848,nan,0.000000
2,5,10,0,3516250,95599980,6634431188893061827,1361370226.878655,-15584,-1624,2172,nan,0.000000
2,5,10,0,3516250,95599980,6634431188893064448,1361370226.878655,-16728,-2488,3848,nan,0.000000
2,5,10,0,3516250,95599980,6634431188893067069,1361370226.878655,-19872,-2232,3600,nan,0.000000
2,5,10,0,3516250,95599980,6634431188893069690,1361370226.878655,-16368,-1104,1824,nan,0.000000
1,5,11,0,3597563,95681143,8937579248466731019,1361370226.879794,-17432,-868,3836,nan,0.000000
1,5,11,0,3597563,95681143,8937579248466733640,1361370226.879794,-16664,-588,2244,nan,0.000000
2,5,12,0,3597563,95681175,8937579248466736261,1361370226.880384,-15100,204,3204,nan,0.000000
2,5,12,0,3597563,95681175,8937579248466738882,1361370226.880384,-15500,1076,3340,nan,0.000000
2,5,12,0,3597563,95681175,8937579248466741503,1361370226.880384,-16100,-1208,4024,nan,0.000000
2,5,12,0,3597563,95681175,8937579248466744124,1361370226.880384,-15648,-1432,3956,nan,0.000000
2,5,12,0,3597563,95681175,8937579248466746745,1361370226.880384,-15404,-196,4704,nan,0.000000
2,5,13,0,3597563,95681207,8937579248466749366,1361370226.881360,-15588,684,4456,nan,0.000000
2,5,13,0,3597563,95681207,8937579248466751987,1361370226.881360,-15960,-1608,5220,nan,0.000000
2,5,13,0,3597563,95681207,8937579248466754608,1361370226.881360,-17868,-1096,4880,nan,0.000000
2,5,13,0,3597563,95681207,8937579248466757229,1361370226.881360,-17972,1580,3772,nan,0.000000
2,5,13,0,3597563,95681207,8937579248466759850,1361370226.881360,-14716,80,3864,nan,0.000000
2,5,14,0,3597563,95681239,8937579248466762471,1361370226.882319,-15372,872,1404,nan,0.000000
2,5,14,0,3597563,95681239,8937579248466765092,1361370226.882319,-17080,1420,1912,nan,0.000000
2,5,14,0,3597563,95681239,8937579248466767713,1361370226.882319,-17700,-848,3196,nan,0.000000
2,5,14,0,3597563,95681239,8937579248466770334,1361370226.882319,-15068,-732,2660,nan,0.000000
2,5,14,0,3597563,95681239,8937579248466772955,1361370226.882319,-15912,-344,2036,nan,0.000000
2,5,15,0,3597563,95681271,8937579248466775576,1361370226.883530,-16832,-240,2856,nan,0.000000
2,5,15,0,3597563,95681271,8937579248466778197,1361370226.883530,-15840,-1000,3100,nan,0.000000
2,5,15,0,3597563,95681271,8937579248466780818,1361370226.883530,-15704,-1964,2528,nan,0.000000
2,5,15,0,3597563,95681271,8937579248466783439,1361370226.883530,-15884,-1620,2732,nan,0.000000
2,5,15,0,3597563,95681271,8937579248466786060,1361370226.883530,-16348,-1052,3044,nan,0.000000
2,5,0,0,3597563,95681303,8937579248466788681,1361370226.885896,-17052,-2148,3872,nan,0.000000
2,5,0,0,3597563,95681303,8937579248466791302,1361370226.885896,-18048,-2728,3180,nan,0.000000
2,5,0,0,3597563,95681303,8937579248466793923,1361370226.885896,-15840,-636,1632,nan,0.000000
2,5,0,0,3597563,95681303,8937579248466796544,1361370226.885896,-15416,236,2112,nan,0.000000
2,5,0,0,3597563,95681303,8937579248466799165,1361370226.885896,-16276,772,2664,nan,0.000000
2,5,1,0,3597563,95681335,8937579248466801786,1361370229.358601,-17216,-576,2524,nan,0.000000
2,5,1,0,3597563,95681335,8937579248466804407,1361370229.358601,-16316,-280,2672,nan,0.000000
2,5,1,0,3597563,95681335,8937579248466807028,1361370229.358601,-15520,160,3004,nan,0.000000
2,5,1,0,3597563,95681335,8937579248466809649,1361370229.358601,-15676,-168,3244,nan,0.000000
2,5,1,0,3597563,95681335,8937579248466812270,1361370229.358601,-16144,-908,3476,nan,0.000000
1,5,2,0,3678878,95762441,8073521460787862537,1361370229.360327,-15716,320,4216,nan,0.000000
1,5,2,0,3678878,95762441,8073521460787865158,1361370229.360327,-15864,-716,4500,nan,0.000000
2,5,3,0,3678878,95762473,8073521460787867779,1361370229.360707,-15564,-2276,4488,nan,0.000000
2,5,3,0,3678878,95762473,8073521460787870400,1361370229.360707,-16976,-1472,4328,nan,0.000000
2,5,3,0,3678878,95762473,8073521460787873021,1361370229.360707,-18684,324,4000,nan,0.000000
2,5,3,0,3678878,95762473,8073521460787875642,1361370229.360707,-16072,868,4592,nan,0.000000
2,5,3,0,3678878,95762473,8073521460787878263,1361370229.360707,-14400,380,2416,nan,0.000000
2,5,4,0,3678878,95762505,8073521460787880884,1361370229.362336,-16512,-356,1632,nan,0.000000
2,5,4,0,3678878,95762505,8073521460787883505,1361370229.362336,-15852,1264,2580,nan,0.000000
2,5,4,0,3678878,95762505,8073521460787886126,1361370229.362336,-17964,-1592,3140,nan,0.000000
2,5,4,0,3678878,95762505,8073521460787888747,1361370229.362336,-15496,-120,3380,nan,0.000000
2,5,4,0,3678878,95762505,8073521460787891368,1361370229.362336,-15808,-1040,2100,nan,0.000000
2,5,5,0,3678878,95762537,8073521460787893989,1361370229.363436,-15956,-932,3432,nan,0.000000
2,5,5,0,3678878,95762537,8073521460787896610,1361370229.363436,-15888,-1180,2360,nan,0.000000
2,5,5,0,3678878,95762537,8073521460787899231,1361370229.363436,-16108,-1648,2920,nan,0.000000
2,5,5,0,3678878,95762537,8073521460787901852,1361370229.363436,-16476,-2596,3440,nan,0.000000
2,5,5,0,3678878,95762537,8073521460787904473,1361370229.363436,-18340,-1744,3292,nan,0.000000
2,5,6,0,3678878,95762569,8073521460787907094,1361370229.364452,-16868,-288,1544,nan,0.000000
2,5,6,0,3678878,95762569,8073521460787909715,1361370229.364452,-15708,-736,1716,nan,0.000000
2,5,6,0,3678878,95762569,8073521460787912336,1361370229.364452,-15908,1016,2428,nan,0.000000
2,5,6,0,3678878,95762569,8073521460787914957,1361370229.364452,-17144,16,2320,nan,0.000000
2,5,6,0,3678878,95762569,8073521460787917578,1361370229.364452,-16100,-72,2888,nan,0.000000
2,5,7,0,3678878,95762601,8073521460787920199,1361370229.365086,-15940,908,2836,nan,0.000000
2,5,7,0,3678878,95762601,8073521460787922820,1361370229.365086,-15768,-196,3484,nan,0.000000
2,5,7,0,3678878,95762601,8073521460787925441,1361370229.365086,-16124,-868,3380,nan,0.000000
2,5,7,0,3678878,95762601,8073521460787928062,1361370229.365086,-15956,-932,3784,nan,0.000000
2,5,7,0,3678878,95762601,8073521460787930683,1361370229.365086,-15828,-280,3824,nan,0.000000
2,5,8,0,3678878,95762633,8073521460787933304,1361370231.840289,-15760,-4,3872,nan,0.000000
2,5,8,0,3678878,95762633,8073521460787935925,1361370231.840289,-15796,-2068,4728,nan,0.000000
2,5,8,0,3678878,95762633,8073521460787938546,1361370231.840289,-17052,-1168,4552,nan,0.000000
2,5,8,0,3678878,95762633,8073521460787941167,1361370231.840289,-16696,-152,4468,nan,0.000000
2,5,8,0,3678878,95762633,8073521460787943788,1361370231.840289,-17700,1464,3572,nan,0.000000
1,5,9,0,3760191,95843744,8652238381021011983,1361370231.841265,-14996,192,1812,nan,0.000000
1,5,9,0,3760191,95843744,8652238381021014604,1361370231.841265,-17188,1440,1320,nan,0.000000
2,5,10,0,3760191,95843775,8652238381021017225,1361370231.842194,-17056,-728,3248,nan,0.000000
2,5,10,0,3760191,95843775,8652238381021019846,1361370231.842194,-15112,-732,1948,nan,0.000000
2,5,10,0,3760191,95843775,8652238381021022467,1361370231.842194,-16240,-1096,2260,nan,0.000000
2,5,10,0,3760191,95843775,8652238381021025088,1361370231.842194,-16860,-276,2788,nan,0.000000
2,5,10,0,3760191,95843775,8652238381021027709,1361370231.842194,-15928,-1240,3216,nan,0.000000
2,5,11,0,3760191,95843808,8652238381021030330,1361370231.843359,-15228,-2064,2736,nan,0.000000
2,5,11,0,3760191,95843808,8652238381021032951,1361370231.843359,-16164,-2192,3320,nan,0.000000
2,5,11,0,3760191,95843808,8652238381021035572,1361370231.843359,-17012,-1416,3248,nan,0.000000
2,5,11,0,3760191,95843808,8652238381021038193,1361370231.843359,-17344,-2576,3792,nan,0.000000
2,5,11,0,3760191,95843808,8652238381021040814,1361370231.843359,-17144,-1928,2700,nan,0.000000
2,5,12,0,3760191,95843839,8652238381021043435,1361370231.844217,-15844,-520,2424,nan,0.000000
2,5,12,0,3760191,95843839,8652238381021046056,1361370231.844217,-15432,1048,2100,nan,0.000000
2,5,12,0,3760191,95843839,8652238381021048677,1361370231.844217,-16140,712,2604,nan,0.000000
2,5,12,0,3760191,95843839,8652238381021051298,1361370231.844217,-17524,-460,3084,nan,0.000000
2,5,12,0,3760191,95843839,8652238381021053919,1361370231.844217,-16180,824,3364,nan,0.000000
2,5,13,0,3760191,95843872,8652238381021056540,1361370231.844906,-14820,172,3672,nan,0.000000
2,5,13,0,3760191,95843872,8652238381021059161,1361370231.844906,-15964,-588,3596,nan,0.000000
2,5,13,0,3760191,95843872,8652238381021061782,1361370231.844906,-16180,-2320,3864,nan,0.000000
2,5,13,0,3760191,95843872,8652238381021064403,1361370231.844906,-15296,-556,4440,nan,0.000000
2,5,13,0,3760191,95843872,8652238381021067024,1361370231.844906,-15660,-312,4496,nan,0.000000
2,5,14,0,3760191,95843903,8652238381021069645,1361370231.846197,-15896,-1976,4752,nan,0.000000
2,5,14,0,3760191,95843903,8652238381021072266,1361370231.846197,-16356,-2872,5364,nan,0.000000
2,5,14,0,3760191,95843903,8652238381021074887,1361370231.846197,-17168,16,4892,nan,0.000000
2,5,14,0,3760191,95843903,8652238381021077508,1361370231.846197,-16860,1712,4336,nan,0.000000
2,5,14,0,3760191,95843903,8652238381021080129,1361370231.846197,-15460,76,4020,nan,0.000000
2,5,15,0,3760191,95843935,8652238381021082750,1361370234.322521,-14732,796,1624,nan,0.000000
2,5,15,0,3760191,95843935,8652238381021085371,1361370234.322521,-17980,1080,3076,nan,0.000000
2,5,15,0,3760191,95843935,8652238381021087992,1361370234.322521,-16608,-332,3124,nan,0.000000
2,5,15,0,3760191,95843935,8652238381021090613,1361370234.322521,-14560,-2264,2548,nan,0.000000
2,5,15,0,3760191,95843935,8652238381021093234,1361370234.322521,-16012,-964,2708,nan,0.000000
1,5,0,0,3841502,95925074,291669669003745286,1361370234.323716,-15692,-872,3164,nan,0.000000
1,5,0,0,3841502,95925074,291669669003747907,1361370234.323716,-15820,-2168,2668,nan,0.000000
2,5,1,0,3841502,95925106,291669669003750528,1361370234.324525,-16932,-1596,3980,nan,0.000000
2,5,1,0,3841502,95925106,291669669003753149,1361370234.324525,-18828,-2956,4344,nan,0.000000
2,5,1,0,3841502,95925106,291669669003755770,1361370234.324525,-17896,132,1476,nan,0.000000
2,5,1,0,3841502,95925106,291669669003758391,1361370234.324525,-14244,100,-8,nan,0.000000
2,5,1,0,3841502,95925106,291669669003761012,1361370234.324525,-16132,48,3920,nan,0.000000
2,5,2,0,3841502,95925138,291669669003763633,1361370234.325856,-17632,-1312,2744,nan,0.000000
2,5,2,0,3841502,95925138,291669669003766254,1361370234.325856,-15784,-168,2688,nan,0.000000
2,5,2,0,3841502,95925138,291669669003768875,1361370234.325856,-14912,-436,3440,nan,0.000000
2,5,2,0,3841502,95925138,291669669003771496,1361370234.325856,-15232,-1312,3508,nan,0.000000
2,5,2,0,3841502,95925138,291669669003774117,1361370234.325856,-16768,-1200,2172,nan,0.000000
2,5,3,0,3841502,95925170,291669669003776738,1361370234.327167,-16856,-424,3456,nan,0.000000
2,5,3,0,3841502,95925170,291669669003779359,1361370234.327167,-16592,-1520,2928,nan,0.000000
2,5,3,0,3841502,95925170,291669669003781980,1361370234.327167,-15976,504,2456,nan,0.000000
2,5,3,0,3841502,95925170,291669669003784601,1361370234.327167,-15768,-292,3136,nan,0.000000
2,5,3,0,3841502,95925170,291669669003787222,1361370234.327167,-16088,288,3272,nan,0.000000
2,5,4,0,3841502,95925202,291669669003789843,1361370234.327942,-16164,204,3276,nan,0.000000
2,5,4,0,3841502,95925202,291669669003792464,1361370234.327942,-16208,1636,2252,nan,0.000000
2,5,4,0,3841502,95925202,291669669003795085,1361370234.327942,-15972,452,1736,nan,0.000000
2,5,4,0,3841502,95925202,291669669003797706,1361370234.327942,-16304,-1632,2044,nan,0.000000
2,5,4,0,3841502,95925202,291669669003800327,1361370234.327942,-17328,408,1516,nan,0.000000
2,5,5,0,3841502,95925234,291669669003802948,1361370234.328774,-16704,-2440,2624,nan,0.000000
2,5,5,0,3841502,95925234,291669669003805569,1361370234.328774,-16340,-1984,1280,nan,0.000000
2,5,5,0,3841502,95925234,291669669003808190,1361370234.328774,-16456,-1848,2020,nan,0.000000
2,5,5,0,3841502,95925234,291669669003810811,1361370234.328774,-16268,-1820,1772,nan,0.000000
2,5,5,0,3841502,95925234,291669669003813432,1361370234.328774,-16348,-2076,1768,nan,0.000000
2,5,6,0,3841502,95925266,291669669003816053,1361370236.802469,-16428,-1684,1728,nan,0.000000
2,5,6,0,3841502,95925266,291669669003818674,1361370236.802469,-16268,-2076,1596,nan,0.000000
2,5,6,0,3841502,95925266,291669669003821295,1361370236.802469,-16492,-2112,1376,nan,0.000000
2,5,6,0,3841502,95925266,291669669003823916,1361370236.802469,-16424,-1388,1428,nan,0.000000
2,5,6,0,3841502,95925266,291669669003826537,1361370236.802469,-16728,-368,1924,nan,0.000000
1,5,7,0,3922814,96006371,4325396243602784262,1361370236.804082,-16612,-1972,1564,nan,0.000000
1,5,7,0,3922814,96006371,4325396243602786883,1361370236.804082,-16768,-516,1456,nan,0.000000
2,5,8,0,3922814,96006403,4325396243602789504,1361370236.804870,-16136,236,2116,nan,0.000000
2,5,8,0,3922814,96006403,4325396243602792125,1361370236.804870,-15532,52,1876,nan,0.000000
2,5,8,0,3922814,96006403,4325396243602794746,1361370236.804870,-16428,896,3076,nan,0.000000
2,5,8,0,3922814,96006403,4325396243602797367,1361370236.804870,-17472,-856,3184,nan,0.000000
2,5,8,0,3922814,96006403,4325396243602799988,1361370236.804870,-15668,584,2940,nan,0.000000
2,5,9,0,3922814,96006435,4325396243602802609,1361370236.807229,-15340,-504,3356,nan,0.000000
2,5,9,0,3922814,96006435,4325396243602805230,1361370236.807229,-15980,-68,3728,nan,0.000000
2,5,9,0,3922814,96006435,4325396243602807851,1361370236.807229,-16080,-2200,3924,nan,0.000000
2,5,9,0,3922814,96006435,4325396243602810472,1361370236.807229,-15336,-1056,3292,nan,0.000000
2,5,9,0,3922814,96006435,4325396243602813093,1361370236.807229,-15912,-620,3956,nan,0.000000
2,5,10,0,3922814,96006467,4325396243602815714,1361370236.808205,-16640,308,4320,nan,0.000000
2,5,10,0,3922814,96006467,4325396243602818335,1361370236.808205,-16700,-3192,5480,nan,0.000000
2,5,10,0,3922814,96006467,4325396243602820956,1361370236.808205,-17816,372,3400,nan,0.000000
2,5,10,0,3922814,96006467,4325396243602823577,1361370236.808205,-15788,24,4420,nan,0.000000
2,5,10,0,3922814,96006467,4325396243602826198,1361370236.808205,-14984,488,888,nan,0.000000
2,5,11,0,3922814,96006499,4325396243602828819,1361370236.808942,-17424,1720,2140,nan,0.000000
2,5,11,0,3922814,96006499,4325396243602831440,1361370236.808942,-16100,116,2944,nan,0.000000
2,5,11,0,3922814,96006499,4325396243602834061,1361370236.808942,-15400,-1488,2264,nan,0.000000
2,5,11,0,3922814,96006499,4325396243602836682,1361370236.808942,-15996,-888,2724,nan,0.000000
2,5,11,0,3922814,96006499,4325396243602839303,1361370236.808942,-16268,-288,2592,nan,0.000000
2,5,12,0,3922814,96006531,4325396243602841924,1361370236.809585,-16052,-1160,2900,nan,0.000000
2,5,12,0,3922814,96006531,4325396243602844545,1361370236.809585,-15796,-2456,3116,nan,0.000000
2,5,12,0,3922814,96006531,4325396243602847166,1361370236.809585,-16720,-2192,3560,nan,0.000000
2,5,12,0,3922814,96006531,4325396243602849787,1361370236.809585,-18440,-3228,4644,nan,0.000000
2,5,12,0,3922814,96006531,4325396243602852408,1361370236.809585,-16336,-1464,2344,nan,0.000000
2,5,13,0,3922814,96006563,4325396243602855029,1361370239.284372,-14780,320,900,nan,0.000000
2,5,13,0,3922814,96006563,4325396243602857650,1361370239.284372,-16824,1348,4456,nan,0.000000
2,5,13,0,3922814,96006563,4325396243602860271,1361370239.284372,-17128,-1496,3220,nan,0.000000
2,5,13,0,3922814,96006563,4325396243602862892,1361370239.284372,-15412,-396,3456,nan,0.000000
2,5,13,0,3922814,96006563,4325396243602865513,1361370239.284372,-15488,92,3652,nan,0.000000
1,5,14,0,4004129,96087690,7498849644034556931,1361370239.286065,-15704,-2120,4228,nan,0.000000
1,5,14,0,4004129,96087690,7498849644034559552,1361370239.286065,-15520,-1560,4720,nan,0.000000
2,5,15,0,4004129,96087722,7498849644034562173,1361370239.286672,-15896,820,4584,nan,0.000000
2,5,15,0,4004129,96087722,7498849644034564794,1361370239.286672,-15888,-2300,6156,nan,0.000000
2,5,15,0,4004129,96087722,7498849644034567415,1361370239.286672,-19048,100,5044,nan,0.000000
2,5,15,0,4004129,96087722,7498849644034570036,1361370239.286672,-16528,2160,4932,nan,0.000000
2,5,15,0,4004129,96087722,7498849644034572657,1361370239.286672,-14168,772,1536,nan,0.000000
2,5,0,0,4004129,96087754,7498849644034575278,1361370239.288103,-17088,1552,3420,nan,0.000000
2,5,0,0,4004129,96087754,7498849644034577899,1361370239.288103,-15868,396,3084,nan,0.000000
2,5,0,0,4004129,96087754,7498849644034580520,1361370239.288103,-15196,-2404,3136,nan,0.000000
2,5,0,0,4004129,96087754,7498849644034583141,1361370239.288103,-15992,-912,2908,nan,0.000000
2,5,0,0,4004129,96087754,7498849644034585762,1361370239.288103,-16244,-988,3392,nan,0.000000
2,5,1,0,4004129,96087786,7498849644034588383,1361370239.289001,-15500,-1852,3016,nan,0.000000
2,5,1,0,4004129,96087786,7498849644034591004,1361370239.289001,-15888,-3748,3076,nan,0.000000
2,5,1,0,4004129,96087786,7498849644034593625,1361370239.289001,-17904,-1720,3628,nan,0.000000
2,5,1,0,4004129,96087786,7498849644034596246,1361370239.289001,-19092,-1852,4252,nan,0.000000
2,5,1,0,4004129,96087786,7498849644034598867,1361370239.289001,-13628,1768,-608,nan,0.000000
2,5,2,0,4004129,96087818,7498849644034601488,1361370239.290025,-18372,240,4768,nan,0.000000
2,5,2,0,4004129,96087818,7498849644034604109,1361370239.290025,-16900,-2752,3252,nan,0.000000
2,5,2,0,4004129,96087818,7498849644034606730,1361370239.290025,-14504,756,3400,nan,0.000000
2,5,2,0,4004129,96087818,7498849644034609351,1361370239.290025,-14576,-572,4420,nan,0.000000
2,5,2,0,4004129,96087818,7498849644034611972,1361370239.290025,-15768,-632,3772,nan,0.000000
2,5,3,0,4004129,96087850,7498849644034614593,1361370239.291188,-15572,-1796,4536,nan,0.000000
2,5,3,0,4004129,96087850,7498849644034617214,1361370239.291188,-15392,712,3828,nan,0.000000
2,5,3,0,4004129,96087850,7498849644034619835,1361370239.291188,-15808,-1632,4804,nan,0.000000
2,5,3,0,4004129,96087850,7498849644034622456,1361370239.291188,-15788,-2660,5348,nan,0.000000
2,5,3,0,4004129,96087850,7498849644034625077,1361370239.291188,-16824,-732,5808,nan,0.000000
1,5,5,0,4085441,96331637,-7200995228418915315,1361370246.730306,-15976,-1676,3348,nan,0.000000
1,5,5,0,4085441,96331637,-7200995228418912694,1361370246.730306,-15836,-1208,3128,nan,0.000000
2,5,6,0,4085441,96331668,-7200995228418910073,1361370246.731963,-15912,-3060,3192,nan,0.000000
2,5,6,0,4085441,96331668,-7200995228418907452,1361370246.731963,-16492,-3176,3648,nan,0.000000
2,5,6,0,4085441,96331668,-7200995228418904831,1361370246.731963,-18812,-2944,4204,nan,0.000000
2,5,6,0,4085441,96331668,-7200995228418902210,1361370246.731963,-16748,-1744,1980,nan,0.000000
2,5,6,0,4085441,96331668,-7200995228418899589,1361370246.731963,-15208,2116,1824,nan,0.000000
2,5,7,0,4085441,96331701,-7200995228418896968,1361370246.732911,-16372,248,4312,nan,0.000000
2,5,7,0,4085441,96331701,-7200995228418894347,1361370246.732911,-16320,-188,3396,nan,0.000000
2,5,7,0,4085441,96331701,-7200995228418891726,1361370246.732911,-14416,-44,4404,nan,0.000000
2,5,7,0,4085441,96331701,-7200995228418889105,1361370246.732911,-15484,-604,4664,nan,0.000000
2,5,7,0,4085441,96331701,-7200995228418886484,1361370246.732911,-15780,-1956,4488,nan,0.000000
2,5,8,0,4085441,96331732,-7200995228418883863,1361370246.733898,-15032,-836,4332,nan,0.000000
2,5,8,0,4085441,96331732,-7200995228418881242,1361370246.733898,-15252,824,4564,nan,0.000000
2,5,8,0,4085441,96331732,-7200995228418878621,1361370246.733898,-15916,-2912,6424,nan,0.000000
2,5,8,0,4085441,96331732,-7200995228418876000,1361370246.733898,-17296,-1332,5940,nan,0.000000
2,5,8,0,4085441,96331732,-7200995228418873379,1361370246.733898,-19768,3172,3332,nan,0.000000
2,5,9,0,4085441,96331765,-7200995228418870758,1361370246.734617,-12808,-1956,4244,nan,0.000000
2,5,9,0,4085441,96331765,-7200995228418868137,1361370246.734617,-17760,3544,-240,nan,0.000000
2,5,9,0,4085441,96331765,-7200995228418865516,1361370246.734617,-16280,-208,4088,nan,0.000000
2,5,9,0,4085441,96331765,-7200995228418862895,1361370246.734617,-15384,-768,1880,nan,0.000000
2,5,9,0,4085441,96331765,-7200995228418860274,1361370246.734617,-15872,-2004,2828,nan,0.000000
2,5,10,0,4085441,96331796,-7200995228418857653,1361370246.735892,-16048,392,2996,nan,0.000000
2,5,10,0,4085441,96331796,-7200995228418855032,1361370246.735892,-15956,-1680,3608,nan,0.000000
2,5,10,0,4085441,96331796,-7200995228418852411,1361370246.735892,-15356,-2636,2744,nan,0.000000
2,5,10,0,4085441,96331796,-7200995228418849790,1361370246.735892,-16496,-2064,2624,nan,0.000000
2,5,10,0,4085441,96331796,-7200995228418847169,1361370246.735892,-18424,-1536,3716,nan,0.000000
2,5,11,0,4085441,96331829,-7200995228418844548,1361370246.736909,-18444,-1252,3496,nan,0.000000
2,5,11,0,4085441,96331829,-7200995228418841927,1361370246.736909,-13972,1108,-252,nan,0.000000
2,5,11,0,4085441,96331829,-7200995228418839306,1361370246.736909,-17144,1696,3752,nan,0.000000
2,5,11,0,4085441,96331829,-7200995228418836685,1361370246.736909,-17316,-604,2796,nan,0.000000
2,5,11,0,4085441,96331829,-7200995228418834064,1361370246.736909,-15340,100,3208,nan,0.000000
1,5,12,0,4166751,96331860,360098873194686477,1361370246.737925,-15968,-360,3776,nan,0.000000
1,5,12,15,4166751,96331860,360098873194689098,1361370246.737925,-16004,-1436,4420,nan,0.000000
2,5,13,15,4166751,96331893,360098873194691719,1361370246.738264,-15020,-1236,4092,nan,0.000000
2,5,13,15,4166751,96331893,360098873194694340,1361370246.738264,-15268,696,4576,nan,0.000000
2,5,13,15,4166751,96331893,360098873194696961,1361370246.738264,-16360,-972,4596,nan,0.000000
2,5,13,15,4166751,96331893,360098873194699582,1361370246.738264,-17112,-2284,4808,nan,0.000000
2,5,13,15,4166751,96331893,360098873194702203,1361370246.738264,-16688,460,5188,nan,0.000000
2,5,14,15,4166751,96331924,360098873194704824,1361370246.740101,-18140,1428,4080,nan,0.000000
2,5,14,15,4166751,96331924,360098873194707445,1361370246.740101,-14404,-276,4996,nan,0.000000
2,5,14,15,4166751,96331924,360098873194710066,1361370246.740101,-14996,736,2384,nan,0.000000
2,5,14,15,4166751,96331924,360098873194712687,1361370246.740101,-16812,568,3152,nan,0.000000
2,5,14,15,4166751,96331924,360098873194715308,1361370246.740101,-16864,1896,3104,nan,0.000000
2,5,15,15,4166751,96331957,360098873194717929,1361370246.740705,-15416,-1944,4016,nan,0.000000
2,5,15,15,4166751,96331957,360098873194720550,1361370246.740705,-15744,-980,2732,nan,0.000000
2,5,15,15,4166751,96331957,360098873194723171,1361370246.740705,-16072,-888,3860,nan,0.000000
2,5,15,15,4166751,96331957,360098873194725792,1361370246.740705,-15472,-2296,4060,nan,0.000000
2,5,15,15,4166751,96331957,360098873194728413,1361370246.740705,-15596,-1768,3212,nan,0.000000
2,5,0,15,4166751,96331988,360098873194731034,1361370246.742143,-16456,-2984,3712,nan,0.000000
2,5,0,15,4166751,96331988,360098873194733655,1361370246.742143,-17540,-2584,3876,nan,0.000000
2,5,0,15,4166751,96331988,360098873194736276,1361370246.742143,-17460,-1636,3776,nan,0.000000
2,5,0,15,4166751,96331988,360098873194738897,1361370246.742143,-15752,-644,956,nan,0.000000
2,5,0,15,4166751,96331988,360098873194741518,1361370246.742143,-15816,1648,2780,nan,0.000000
2,5,1,15,4166751,96332021,360098873194744139,1361370246.742905,-17376,-1588,3836,nan,0.000000
2,5,1,15,4166751,96332021,360098873194746760,1361370246.742905,-16500,-1312,3448,nan,0.000000
2,5,1,15,4166751,96332021,360098873194749381,1361370246.742905,-14560,412,3672,nan,0.000000
2,5,1,15,4166751,96332021,360098873194752002,1361370246.742905,-15284,-968,4264,nan,0.000000
2,5,1,15,4166751,96332021,360098873194754623,1361370246.742905,-16040,-1472,4128,nan,0.000000
2,5,2,15,4166751,96332052,360098873194757244,1361370246.744076,-15164,-1228,4364,nan,0.000000
2,5,2,15,4166751,96332052,360098873194759865,1361370246.744076,-14936,-604,4156,nan,0.000000
2,5,2,15,4166751,96332052,360098873194762486,1361370246.744076,-15784,-1084,4448,nan,0.000000
2,5,2,15,4166751,96332052,360098873194765107,1361370246.744076,-16916,-3420,5684,nan,0.000000
2,5,2,15,4166751,96332052,360098873194767728,1361370246.744076,-19292,504,4036,nan,0.000000
1,5,3,0,4248062,96332085,4328140651268213777,1361370246.744678,-14984,-720,1752,nan,0.000000
1,5,3,0,4248062,96332085,4328140651268216398,1361370246.744678,-17328,1808,2260,nan,0.000000
2,5,4,0,4248062,96332116,4328140651268219019,1361370246.746002,-16692,724,2840,nan,0.000000
2,5,4,0,4248062,96332116,4328140651268221640,1361370246.746002,-15528,-1452,2464,nan,0.000000
2,5,4,0,4248062,96332116,4328140651268224261,1361370246.746002,-16024,-1224,2824,nan,0.000000
2,5,4,0,4248062,96332116,4328140651268226882,1361370246.746002,-16392,-120,2656,nan,0.000000
2,5,4,0,4248062,96332116,4328140651268229503,1361370246.746002,-16240,-1288,2844,nan,0.000000
2,5,5,0,4248062,96332148,4328140651268232124,1361370246.746510,-16252,-1896,2280,nan,0.000000
2,5,5,0,4248062,96332148,4328140651268234745,1361370246.746510,-16380,-2592,1956,nan,0.000000
2,5,5,0,4248062,96332148,4328140651268237366,1361370246.746510,-17396,-2560,2604,nan,0.000000
2,5,5,0,4248062,96332148,4328140651268239987,1361370246.746510,-16512,-588,3632,nan,0.000000
2,5,5,0,4248062,96332148,4328140651268242608,1361370246.746510,-15588,-612,2168,nan,0.000000
2,5,6,0,4248062,96332180,4328140651268245229,1361370246.749010,-16120,304,2716,nan,0.000000
2,5,6,0,4248062,96332180,4328140651268247850,1361370246.749010,-16196,1128,2384,nan,0.000000
2,5,6,0,4248062,96332180,4328140651268250471,1361370246.749010,-15976,-1020,3412,nan,0.000000
2,5,6,0,4248062,96332180,4328140651268253092,1361370246.749010,-16252,-660,3368,nan,0.000000
2,5,6,0,4248062,96332180,4328140651268255713,1361370246.749010,-17052,-944,2700,nan,0.000000
2,5,7,0,4248062,96332212,4328140651268258334,1361370246.753707,-16192,-1828,2896,nan,0.000000
2,5,7,0,4248062,96332212,4328140651268260955,1361370246.753707,-15744,-320,3292,nan,0.000000
2,5,7,0,4248062,96332212,4328140651268263576,1361370246.753707,-17112,-504,3796,nan,0.000000
2,5,7,0,4248062,96332212,4328140651268266197,1361370246.753707,-15884,-16,3508,nan,0.000000
2,5,7,0,4248062,96332212,4328140651268268818,1361370246.753707,-15948,-176,3244,nan,0.000000
2,5,8,0,4248062,96332244,4328140651268271439,1361370246.757765,-16360,-312,3280,nan,0.000000
2,5,8,0,4248062,96332244,4328140651268274060,1361370246.757765,-16332,48,3044,nan,0.000000
2,5,8,0,4248062,96332244,4328140651268276681,1361370246.757765,-16340,260,3292,nan,0.000000
2,5,8,0,4248062,96332244,4328140651268279302,1361370246.757765,-15812,-660,4120,nan,0.000000
2,5,8,0,4248062,96332244,4328140651268281923,1361370246.757765,-16288,-672,3760,nan,0.000000
2,5,9,0,4248062,96332276,4328140651268284544,1361370249.214324,-16296,-844,4044,nan,0.000000
2,5,9,0,4248062,96332276,4328140651268287165,1361370249.214324,-15860,-652,3500,nan,0.000000
2,5,9,0,4248062,96332276,4328140651268289786,1361370249.214324,-15640,-204,3220,nan,0.000000
2,5,9,0,4248062,96332276,4328140651268292407,1361370249.214324,-15820,-104,2904,nan,0.000000
2,5,9,0,4248062,96332276,4328140651268295028,1361370249.214324,-16232,-672,2112,nan,0.000000
1,5,10,0,4329374,96413006,-6049050094299067377,1361370249.215441,-16324,-988,2064,nan,0.000000
1,5,10,0,4329374,96413006,-6049050094299064756,1361370249.215441,-15876,-1620,2084,nan,0.000000
2,5,11,0,4329374,96413038,-6049050094299062135,1361370249.215999,-16284,-1736,2436,nan,0.000000
2,5,11,0,4329374,96413038,-6049050094299059514,1361370249.215999,-16508,-1436,2572,nan,0.000000
2,5,11,0,4329374,96413038,-6049050094299056893,1361370249.215999,-16276,-1756,2884,nan,0.000000
2,5,11,0,4329374,96413038,-6049050094299054272,1361370249.215999,-15928,-1944,3056,nan,0.000000
2,5,11,0,4329374,96413038,-6049050094299051651,1361370249.215999,-15844,-2320,3160,nan,0.000000
2,5,12,0,4329374,96413070,-6049050094299049030,1361370249.216830,-16484,-2672,4040,nan,0.000000
2,5,12,0,4329374,96413070,-6049050094299046409,1361370249.216830,-17284,-2224,3636,nan,0.000000
2,5,12,0,4329374,96413070,-6049050094299043788,1361370249.216830,-16776,-1952,3352,nan,0.000000
2,5,12,0,4329374,96413070,-6049050094299041167,1361370249.216830,-16044,-2148,2864,nan,0.000000
2,5,12,0,4329374,96413070,-6049050094299038546,1361370249.216830,-15860,608,1748,nan,0.000000
2,5,13,0,4329374,96413102,-6049050094299035925,1361370249.217622,-15652,1108,1968,nan,0.000000
2,5,13,0,4329374,96413102,-6049050094299033304,1361370249.217622,-17616,-768,2248,nan,0.000000
2,5,13,0,4329374,96413102,-6049050094299030683,1361370249.217622,-16040,-312,2728,nan,0.000000
2,5,13,0,4329374,96413102,-6049050094299028062,1361370249.217622,-15452,-88,3056,nan,0.000000
2,5,13,0,4329374,96413102,-6049050094299025441,1361370249.217622,-15712,-1064,3336,nan,0.000000
2,5,14,0,4329374,96413134,-6049050094299022820,1361370249.218418,-16220,-1080,3528,nan,0.000000
2,5,14,0,4329374,96413134,-6049050094299020199,1361370249.218418,-15572,-1028,4088,nan,0.000000
2,5,14,0,4329374,96413134,-6049050094299017578,1361370249.218418,-15784,-80,4284,nan,0.000000
2,5,14,0,4329374,96413134,-6049050094299014957,1361370249.218418,-15784,-560,4788,nan,0.000000
2,5,14,0,4329374,96413134,-6049050094299012336,1361370249.218418,-16768,-1444,5048,nan,0.000000
2,5,15,0,4329374,96413166,-6049050094299009715,1361370249.219136,-17792,856,4032,nan,0.000000
2,5,15,0,4329374,96413166,-6049050094299007094,1361370249.219136,-16264,976,4824,nan,0.000000
2,5,15,0,4329374,96413166,-6049050094299004473,1361370249.219136,-14752,256,3172,nan,0.000000
2,5,15,0,4329374,96413166,-6049050094299001852,1361370249.219136,-16060,84,2068,nan,0.000000
2,5,15,0,4329374,96413166,-6049050094298999231,1361370249.219136,-17276,944,2528,nan,0.000000
2,5,0,0,4329374,96413198,-6049050094298996610,1361370251.692078,-16480,76,2936,nan,0.000000
2,5,0,0,4329374,96413198,-6049050094298993989,1361370251.692078,-15340,-1144,2200,nan,0.000000
2,5,0,0,4329374,96413198,-6049050094298991368,1361370251.692078,-16120,-1392,2312,nan,0.000000
2,5,0,0,4329374,96413198,-6049050094298988747,1361370251.692078,-16584,56,2740,nan,0.000000
2,5,0,0,4329374,96413198,-6049050094298986126,1361370251.692078,-16260,-1104,3248,nan,0.000000
1,5,1,0,4410684,96494265,-7491587368164231157,1361370251.693807,-16024,-1612,3184,nan,0.000000
1,5,1,0,4410684,96494265,-7491587368164228536,1361370251.693807,-16948,-1656,4052,nan,0.000000
2,5,2,0,4410684,96494297,-7491587368164225915,1361370251.694409,-18596,-3132,4560,nan,0.000000
2,5,2,0,4410684,96494297,-7491587368164223294,1361370251.694409,-16576,512,908,nan,0.000000
2,5,2,0,4410684,96494297,-7491587368164220673,1361370251.694409,-15272,-888,2220,nan,0.000000
2,5,2,0,4410684,96494297,-7491587368164218052,1361370251.694409,-15516,1876,2288,nan,0.000000
2,5,2,0,4410684,96494297,-7491587368164215431,1361370251.694409,-16272,2336,1968,nan,0.000000
