type,ID,seq,packetLoss,nodeTimestamp,bsTimestamp,syncTimestamp,systemTime,accelX,accelY,accelZ,cannula,voltage
1,3,1,0,3919454,76168562,92920185,1354752531.043304,-9076,11560,7732,nan,0.000000
1,3,1,0,3919454,76168562,92922806,1354752531.043304,-9184,11560,7832,nan,0.000000
2,3,2,0,3919454,76168607,92925427,1354752531.043495,-9376,11600,7908,nan,0.000000
2,3,2,0,3919454,76168607,92928048,1354752531.043495,-9536,11588,7716,nan,0.000000
2,3,2,0,3919454,76168607,92930669,1354752531.043495,-9556,11600,7624,nan,0.000000
2,3,2,0,3919454,76168607,92933290,1354752531.043495,-9504,11624,7588,nan,0.000000
2,3,2,0,3919454,76168607,92935911,1354752531.043495,-9448,11528,7680,nan,0.000000
2,3,3,0,3919454,76168653,92938532,1354752531.043718,-9444,11588,7668,nan,0.000000
2,3,3,0,3919454,76168653,92941153,1354752531.043718,-9384,11536,7692,nan,0.000000
2,3,3,0,3919454,76168653,92943774,1354752531.043718,-9264,11548,7724,nan,0.000000
2,3,3,0,3919454,76168653,92946395,1354752531.043718,-9328,11572,7664,nan,0.000000
2,3,3,0,3919454,76168653,92949016,1354752531.043718,-9384,11564,7692,nan,0.000000
2,3,4,0,3919454,76168698,92951637,1354752531.043926,-9440,11544,7672,nan,0.000000
2,3,4,0,3919454,76168698,92954258,1354752531.043926,-9492,11548,7688,nan,0.000000
2,3,4,0,3919454,76168698,92956879,1354752531.043926,-9516,11496,7716,nan,0.000000
2,3,4,0,3919454,76168698,92959500,1354752531.043926,-9308,11492,7620,nan,0.000000
2,3,4,0,3919454,76168698,92962121,1354752531.043926,-9200,11584,7652,nan,0.000000
2,3,5,0,3919454,76168743,92964742,1354752531.044176,-9248,11528,7684,nan,0.000000
2,3,5,0,3919454,76168743,92967363,1354752531.044176,-9264,11512,7764,nan,0.000000
2,3,5,0,3919454,76168743,92969984,1354752531.044176,-9344,11568,7836,nan,0.000000
2,3,5,0,3919454,76168743,92972605,1354752531.044176,-9292,11372,7612,nan,0.000000
2,3,5,0,3919454,76168743,92975226,1354752531.044176,-9260,11704,7660,nan,0.000000
2,3,6,0,3919454,76168789,92977847,1354752531.044413,-9520,11452,7972,nan,0.000000
2,3,6,0,3919454,76168789,92980468,1354752531.044413,-9316,11532,7904,nan,0.000000
2,3,6,0,3919454,76168789,92983089,1354752531.044413,-9212,11708,7616,nan,0.000000
2,3,6,0,3919454,76168789,92985710,1354752531.044413,-9288,11580,7632,nan,0.000000
2,3,6,0,3919454,76168789,92988331,1354752531.044413,-9416,11500,7876,nan,0.000000
2,3,7,0,3919454,76168834,92990952,1354752531.044649,-9328,11572,7832,nan,0.000000
2,3,7,0,3919454,76168834,92993573,1354752531.044649,-9208,11560,7720,nan,0.000000
2,3,7,0,3919454,76168834,92996194,1354752531.044649,-9248,11544,7740,nan,0.000000
2,3,7,0,3919454,76168834,92998815,1354752531.044649,-9268,11588,7688,nan,0.000000
2,3,7,0,3919454,76168834,93001436,1354752531.044649,-9244,11544,7720,nan,0.000000
1,3,8,0,3942267,76191376,92942998,1354752531.044884,-9260,11512,7820,nan,0.000000
1,3,8,0,3942267,76191376,92945619,1354752531.044884,-9228,11596,7852,nan,0.000000
2,3,9,0,3942267,76191422,92948240,1354752531.044995,-9156,11560,7824,nan,0.000000
2,3,9,0,3942267,76191422,92950861,1354752531.044995,-9204,11636,7744,nan,0.000000
2,3,9,0,3942267,76191422,92953482,1354752531.044995,-9132,11640,7780,nan,0.000000
2,3,9,0,3942267,76191422,92956103,1354752531.044995,-9120,11560,7780,nan,0.000000
2,3,9,0,3942267,76191422,92958724,1354752531.044995,-9160,11596,7780,nan,0.000000
2,3,10,0,3942267,76191467,92961345,1354752531.045226,-9228,11564,7948,nan,0.000000
2,3,10,0,3942267,76191467,92963966,1354752531.045226,-9360,11560,7892,nan,0.000000
2,3,10,0,3942267,76191467,92966587,1354752531.045226,-9284,11532,7760,nan,0.000000
2,3,10,0,3942267,76191467,92969208,1354752531.045226,-9208,11572,7764,nan,0.000000
2,3,10,0,3942267,76191467,92971829,1354752531.045226,-9136,11588,7736,nan,0.000000
2,3,11,0,3942267,76191513,92974450,1354752531.045461,-9104,11576,7788,nan,0.000000
2,3,11,0,3942267,76191513,92977071,1354752531.045461,-9100,11576,7776,nan,0.000000
2,3,11,0,3942267,76191513,92979692,1354752531.045461,-9168,11604,7768,nan,0.000000
2,3,11,0,3942267,76191513,92982313,1354752531.045461,-9240,11560,7776,nan,0.000000
2,3,11,0,3942267,76191513,92984934,1354752531.045461,-9200,11600,7784,nan,0.000000
2,3,12,0,3942267,76191558,92987555,1354752531.045742,-9208,11560,7784,nan,0.000000
2,3,12,0,3942267,76191558,92990176,1354752531.045742,-9096,11640,7804,nan,0.000000
2,3,12,0,3942267,76191558,92992797,1354752531.045742,-9168,11636,7808,nan,0.000000
2,3,12,0,3942267,76191558,92995418,1354752531.045742,-9120,11636,7848,nan,0.000000
2,3,12,0,3942267,76191558,92998039,1354752531.045742,-9180,11572,7768,nan,0.000000
2,3,13,0,3942267,76191604,93000660,1354752531.045980,-9232,11624,7700,nan,0.000000
2,3,13,0,3942267,76191604,93003281,1354752531.045980,-9176,11628,7820,nan,0.000000
2,3,13,0,3942267,76191604,93005902,1354752531.045980,-9124,11632,7832,nan,0.000000
2,3,13,0,3942267,76191604,93008523,1354752531.045980,-9244,11644,7864,nan,0.000000
2,3,13,0,3942267,76191604,93011144,1354752531.045980,-9172,11464,7612,nan,0.000000
2,3,14,0,3942267,76191649,93013765,1354752531.046213,-9104,11768,7700,nan,0.000000
2,3,14,0,3942267,76191649,93016386,1354752531.046213,-9356,11532,8028,nan,0.000000
2,3,14,0,3942267,76191649,93019007,1354752531.046213,-9184,11668,7836,nan,0.000000
2,3,14,0,3942267,76191649,93021628,1354752531.046213,-9184,11700,7584,nan,0.000000
2,3,14,0,3942267,76191649,93024249,1354752531.046213,-9208,11592,7624,nan,0.000000
1,3,15,0,3965080,76214189,92965811,1354752531.046445,-9156,11600,7948,nan,0.000000
1,3,15,0,3965080,76214189,92968432,1354752531.046445,-9160,11580,7716,nan,0.000000
2,3,0,0,3965080,76214235,92971053,1354752531.046556,-9168,11636,7696,nan,0.000000
2,3,0,0,3965080,76214235,92973674,1354752531.046556,-9168,11684,7788,nan,0.000000
2,3,0,0,3965080,76214235,92976295,1354752531.046556,-9184,11624,7780,nan,0.000000
2,3,0,0,3965080,76214235,92978916,1354752531.046556,-9184,11652,7584,nan,0.000000
2,3,0,0,3965080,76214235,92981537,1354752531.046556,-9148,11588,7836,nan,0.000000
2,3,1,0,3965080,76214280,92984158,1354752531.046788,-9180,11628,7856,nan,0.000000
2,3,1,0,3965080,76214280,92986779,1354752531.046788,-9200,11620,7840,nan,0.000000
2,3,1,0,3965080,76214280,92989400,1354752531.046788,-9132,11620,7780,nan,0.000000
2,3,1,0,3965080,76214280,92992021,1354752531.046788,-9156,11592,7792,nan,0.000000
2,3,1,0,3965080,76214280,92994642,1354752531.046788,-9136,11556,7840,nan,0.000000
2,3,2,0,3965080,76214326,92997263,1354752531.047018,-9192,11592,7796,nan,0.000000
2,3,2,0,3965080,76214326,92999884,1354752531.047018,-9252,11600,7792,nan,0.000000
2,3,2,0,3965080,76214326,93002505,1354752531.047018,-9248,11564,7788,nan,0.000000
2,3,2,0,3965080,76214326,93005126,1354752531.047018,-9284,11600,7784,nan,0.000000
2,3,2,0,3965080,76214326,93007747,1354752531.047018,-9180,11556,7748,nan,0.000000
2,3,3,0,3965080,76214371,93010368,1354752531.047247,-9180,11576,7724,nan,0.000000
2,3,3,0,3965080,76214371,93012989,1354752531.047247,-9156,11592,7740,nan,0.000000
2,3,3,0,3965080,76214371,93015610,1354752531.047247,-9160,11616,7720,nan,0.000000
2,3,3,0,3965080,76214371,93018231,1354752531.047247,-9188,11596,7780,nan,0.000000
2,3,3,0,3965080,76214371,93020852,1354752531.047247,-9252,11584,7816,nan,0.000000
2,3,4,0,3965080,76214417,93023473,1354752531.047480,-9204,11512,7752,nan,0.000000
2,3,4,0,3965080,76214417,93026094,1354752531.047480,-9192,11556,7740,nan,0.000000
2,3,4,0,3965080,76214417,93028715,1354752531.047480,-9168,11552,7760,nan,0.000000
2,3,4,0,3965080,76214417,93031336,1354752531.047480,-9224,11584,7784,nan,0.000000
2,3,4,0,3965080,76214417,93033957,1354752531.047480,-9208,11632,7760,nan,0.000000
2,3,5,0,3965080,76214462,93036578,1354752531.519972,-9132,11564,7732,nan,0.000000
2,3,5,0,3965080,76214462,93039199,1354752531.519972,-9248,11588,7832,nan,0.000000
2,3,5,0,3965080,76214462,93041820,1354752531.519972,-9304,11576,7804,nan,0.000000
2,3,5,0,3965080,76214462,93044441,1354752531.519972,-9264,11656,7748,nan,0.000000
2,3,5,0,3965080,76214462,93047062,1354752531.519972,-9200,11452,7612,nan,0.000000
1,3,6,0,3987892,76237020,92988624,1354752531.520572,-9436,11536,8088,nan,0.000000
1,3,6,0,3987892,76237020,92991245,1354752531.520572,-9408,11532,7920,nan,0.000000
2,3,7,0,3987892,76237066,92993866,1354752531.520837,-9264,11700,7492,nan,0.000000
2,3,7,0,3987892,76237066,92996487,1354752531.520837,-9212,11660,7500,nan,0.000000
2,3,7,0,3987892,76237066,92999108,1354752531.520837,-9380,11528,7772,nan,0.000000
2,3,7,0,3987892,76237066,93001729,1354752531.520837,-9328,11552,7852,nan,0.000000
2,3,7,0,3987892,76237066,93004350,1354752531.520837,-9240,11576,7704,nan,0.000000
2,3,8,0,3987892,76237111,93006971,1354752531.521245,-9272,11596,7580,nan,0.000000
2,3,8,0,3987892,76237111,93009592,1354752531.521245,-9332,11624,7692,nan,0.000000
2,3,8,0,3987892,76237111,93012213,1354752531.521245,-9248,11588,7596,nan,0.000000
2,3,8,0,3987892,76237111,93014834,1354752531.521245,-9248,11592,7596,nan,0.000000
2,3,8,0,3987892,76237111,93017455,1354752531.521245,-9276,11600,7732,nan,0.000000
2,3,9,0,3987892,76237157,93020076,1354752531.521555,-9420,11584,7784,nan,0.000000
2,3,9,0,3987892,76237157,93022697,1354752531.521555,-9336,11640,7724,nan,0.000000
2,3,9,0,3987892,76237157,93025318,1354752531.521555,-9316,11604,7580,nan,0.000000
2,3,9,0,3987892,76237157,93027939,1354752531.521555,-9280,11640,7644,nan,0.000000
2,3,9,0,3987892,76237157,93030560,1354752531.521555,-9284,11604,7676,nan,0.000000
2,3,10,0,3987892,76237203,93033181,1354752531.522412,-9332,11560,7760,nan,0.000000
2,3,10,0,3987892,76237203,93035802,1354752531.522412,-9408,11588,7684,nan,0.000000
2,3,10,0,3987892,76237203,93038423,1354752531.522412,-9376,11564,7548,nan,0.000000
2,3,10,0,3987892,76237203,93041044,1354752531.522412,-9200,11608,7488,nan,0.000000
2,3,10,0,3987892,76237203,93043665,1354752531.522412,-9140,11600,7624,nan,0.000000
2,3,11,0,3987892,76237249,93046286,1354752531.522797,-9236,11648,7676,nan,0.000000
2,3,11,0,3987892,76237249,93048907,1354752531.522797,-9268,11664,7624,nan,0.000000
2,3,11,0,3987892,76237249,93051528,1354752531.522797,-9272,11656,7684,nan,0.000000
2,3,11,0,3987892,76237249,93054149,1354752531.522797,-9284,11624,7604,nan,0.000000
2,3,11,0,3987892,76237249,93056770,1354752531.522797,-9244,11688,7552,nan,0.000000
2,3,12,0,3987892,76237294,93059391,1354752532.210462,-9184,11652,7648,nan,0.000000
2,3,12,0,3987892,76237294,93062012,1354752532.210462,-9264,11680,7712,nan,0.000000
2,3,12,0,3987892,76237294,93064633,1354752532.210462,-9312,11712,7736,nan,0.000000
2,3,12,0,3987892,76237294,93067254,1354752532.210462,-9344,11636,7704,nan,0.000000
2,3,12,0,3987892,76237294,93069875,1354752532.210462,-9372,11696,7676,nan,0.000000
1,3,13,0,4010705,76259819,93011436,1354752532.212632,-9212,11600,7656,nan,0.000000
1,3,13,0,4010705,76259819,93014057,1354752532.212632,-9124,11628,7504,nan,0.000000
2,3,14,0,4010705,76259864,93016678,1354752532.212821,-9188,11704,7628,nan,0.000000
2,3,14,0,4010705,76259864,93019299,1354752532.212821,-9268,11636,7596,nan,0.000000
2,3,14,0,4010705,76259864,93021920,1354752532.212821,-9152,11612,7380,nan,0.000000
2,3,14,0,4010705,76259864,93024541,1354752532.212821,-9476,11644,7828,nan,0.000000
2,3,14,0,4010705,76259864,93027162,1354752532.212821,-9368,11620,7740,nan,0.000000
2,3,15,0,4010705,76259910,93029783,1354752532.214741,-9144,11900,7420,nan,0.000000
2,3,15,0,4010705,76259910,93032404,1354752532.214741,-9300,11772,7484,nan,0.000000
2,3,15,0,4010705,76259910,93035025,1354752532.214741,-9524,11616,7736,nan,0.000000
2,3,15,0,4010705,76259910,93037646,1354752532.214741,-9288,11600,7636,nan,0.000000
2,3,15,0,4010705,76259910,93040267,1354752532.214741,-9148,11692,7472,nan,0.000000
2,3,0,0,4010705,76259956,93042888,1354752532.216704,-9184,11768,7596,nan,0.000000
2,3,0,0,4010705,76259956,93045509,1354752532.216704,-9276,11696,7692,nan,0.000000
2,3,0,0,4010705,76259956,93048130,1354752532.216704,-9348,11624,7624,nan,0.000000
2,3,0,0,4010705,76259956,93050751,1354752532.216704,-9296,11596,7392,nan,0.000000
2,3,0,0,4010705,76259956,93053372,1354752532.216704,-9200,11660,7500,nan,0.000000
2,3,1,0,4010705,76260002,93055993,1354752532.217105,-9208,11672,7616,nan,0.000000
2,3,1,0,4010705,76260002,93058614,1354752532.217105,-9172,11704,7624,nan,0.000000
2,3,1,0,4010705,76260002,93061235,1354752532.217105,-9264,11732,7508,nan,0.000000
2,3,1,0,4010705,76260002,93063856,1354752532.217105,-9256,11704,7552,nan,0.000000
2,3,1,0,4010705,76260002,93066477,1354752532.217105,-9248,11640,7600,nan,0.000000
2,3,2,0,4010705,76260047,93069098,1354752532.218722,-9212,11656,7600,nan,0.000000
2,3,2,0,4010705,76260047,93071719,1354752532.218722,-9248,11632,7604,nan,0.000000
2,3,2,0,4010705,76260047,93074340,1354752532.218722,-9340,11664,7616,nan,0.000000
2,3,2,0,4010705,76260047,93076961,1354752532.218722,-9248,11676,7620,nan,0.000000
2,3,2,0,4010705,76260047,93079582,1354752532.218722,-9272,11732,7604,nan,0.000000
2,3,3,0,4010705,76260093,93082203,1354752532.906762,-9344,11708,7604,nan,0.000000
2,3,3,0,4010705,76260093,93084824,1354752532.906762,-9372,11640,7624,nan,0.000000
2,3,3,0,4010705,76260093,93087445,1354752532.906762,-9252,11664,7568,nan,0.000000
2,3,3,0,4010705,76260093,93090066,1354752532.906762,-9224,11688,7584,nan,0.000000
2,3,3,0,4010705,76260093,93092687,1354752532.906762,-9280,11660,7628,nan,0.000000
1,3,4,0,4033518,76282631,93034249,1354752532.908647,-9304,11640,7572,nan,0.000000
1,3,4,0,4033518,76282631,93036870,1354752532.908647,-9264,11628,7616,nan,0.000000
2,3,5,0,4033518,76282677,93039491,1354752532.910687,-9336,11620,7648,nan,0.000000
2,3,5,0,4033518,76282677,93042112,1354752532.910687,-9276,11660,7692,nan,0.000000
2,3,5,0,4033518,76282677,93044733,1354752532.910687,-9264,11672,7532,nan,0.000000
2,3,5,0,4033518,76282677,93047354,1354752532.910687,-9240,11668,7576,nan,0.000000
2,3,5,0,4033518,76282677,93049975,1354752532.910687,-9316,11660,7680,nan,0.000000
2,3,6,0,4033518,76282722,93052596,1354752532.911158,-9276,11620,7640,nan,0.000000
2,3,6,0,4033518,76282722,93055217,1354752532.911158,-9348,11712,7752,nan,0.000000
2,3,6,0,4033518,76282722,93057838,1354752532.911158,-9172,11480,7468,nan,0.000000
2,3,6,0,4033518,76282722,93060459,1354752532.911158,-9056,11792,7436,nan,0.000000
2,3,6,0,4033518,76282722,93063080,1354752532.911158,-9340,11544,7936,nan,0.000000
2,3,7,0,4033518,76282768,93065701,1354752532.912740,-9316,11644,7932,nan,0.000000
2,3,7,0,4033518,76282768,93068322,1354752532.912740,-9212,11724,7528,nan,0.000000
2,3,7,0,4033518,76282768,93070943,1354752532.912740,-9276,11664,7416,nan,0.000000
2,3,7,0,4033518,76282768,93073564,1354752532.912740,-9368,11580,7676,nan,0.000000
2,3,7,0,4033518,76282768,93076185,1354752532.912740,-9320,11616,7784,nan,0.000000
2,3,8,0,4033518,76282814,93078806,1354752532.914658,-9152,11620,7628,nan,0.000000
2,3,8,0,4033518,76282814,93081427,1354752532.914658,-9224,11676,7600,nan,0.000000
2,3,8,0,4033518,76282814,93084048,1354752532.914658,-9240,11640,7620,nan,0.000000
2,3,8,0,4033518,76282814,93086669,1354752532.914658,-9216,11556,7644,nan,0.000000
2,3,8,0,4033518,76282814,93089290,1354752532.914658,-9196,11608,7544,nan,0.000000
2,3,9,0,4033518,76282860,93091911,1354752532.915162,-9236,11572,7728,nan,0.000000
2,3,9,0,4033518,76282860,93094532,1354752532.915162,-9224,11600,7728,nan,0.000000
2,3,9,0,4033518,76282860,93097153,1354752532.915162,-9260,11652,7648,nan,0.000000
2,3,9,0,4033518,76282860,93099774,1354752532.915162,-9232,11664,7580,nan,0.000000
2,3,9,0,4033518,76282860,93102395,1354752532.915162,-9336,11684,7600,nan,0.000000
2,3,10,0,4033518,76282906,93105016,1354752533.602770,-9316,11632,7680,nan,0.000000
2,3,10,0,4033518,76282906,93107637,1354752533.602770,-9276,11616,7736,nan,0.000000
2,3,10,0,4033518,76282906,93110258,1354752533.602770,-9324,11620,7688,nan,0.000000
2,3,10,0,4033518,76282906,93112879,1354752533.602770,-9316,11644,7652,nan,0.000000
2,3,10,0,4033518,76282906,93115500,1354752533.602770,-9296,11672,7684,nan,0.000000
1,3,11,0,4056331,76305462,93057062,1354752533.604663,-9228,11624,7700,nan,0.000000
1,3,11,0,4056331,76305462,93059683,1354752533.604663,-9240,11616,7644,nan,0.000000
2,3,12,0,4056331,76305508,93062304,1354752533.606723,-9236,11648,7684,nan,0.000000
2,3,12,0,4056331,76305508,93064925,1354752533.606723,-9316,11640,7668,nan,0.000000
2,3,12,0,4056331,76305508,93067546,1354752533.606723,-9256,11628,7676,nan,0.000000
2,3,12,0,4056331,76305508,93070167,1354752533.606723,-9252,11624,7680,nan,0.000000
2,3,12,0,4056331,76305508,93072788,1354752533.606723,-9240,11664,7636,nan,0.000000
2,3,13,0,4056331,76305554,93075409,1354752533.608672,-9272,11640,7732,nan,0.000000
2,3,13,0,4056331,76305554,93078030,1354752533.608672,-9364,11668,7640,nan,0.000000
2,3,13,0,4056331,76305554,93080651,1354752533.608672,-9316,11616,7692,nan,0.000000
2,3,13,0,4056331,76305554,93083272,1354752533.608672,-9332,11552,7688,nan,0.000000
2,3,13,0,4056331,76305554,93085893,1354752533.608672,-9288,11636,7600,nan,0.000000
2,3,14,0,4056331,76305599,93088514,1354752533.609195,-9260,11652,7596,nan,0.000000
2,3,14,0,4056331,76305599,93091135,1354752533.609195,-9240,11668,7708,nan,0.000000
2,3,14,0,4056331,76305599,93093756,1354752533.609195,-9372,11628,7696,nan,0.000000
2,3,14,0,4056331,76305599,93096377,1354752533.609195,-9384,11620,7708,nan,0.000000
2,3,14,0,4056331,76305599,93098998,1354752533.609195,-9224,11432,7468,nan,0.000000
2,3,15,0,4056331,76305645,93101619,1354752533.610667,-9096,11756,7456,nan,0.000000
2,3,15,0,4056331,76305645,93104240,1354752533.610667,-9260,11548,7924,nan,0.000000
2,3,15,0,4056331,76305645,93106861,1354752533.610667,-9256,11644,7912,nan,0.000000
2,3,15,0,4056331,76305645,93109482,1354752533.610667,-9240,11732,7516,nan,0.000000
2,3,15,0,4056331,76305645,93112103,1354752533.610667,-9360,11616,7428,nan,0.000000
2,3,0,0,4056331,76305691,93114724,1354752533.612620,-9356,11576,7740,nan,0.000000
2,3,0,0,4056331,76305691,93117345,1354752533.612620,-9320,11580,7840,nan,0.000000
2,3,0,0,4056331,76305691,93119966,1354752533.612620,-9236,11612,7628,nan,0.000000
2,3,0,0,4056331,76305691,93122587,1354752533.612620,-9284,11684,7668,nan,0.000000
2,3,0,0,4056331,76305691,93125208,1354752533.612620,-9288,11640,7612,nan,0.000000
2,3,1,0,4056331,76305737,93127829,1354752534.298730,-9236,11592,7644,nan,0.000000
2,3,1,0,4056331,76305737,93130450,1354752534.298730,-9184,11624,7552,nan,0.000000
2,3,1,0,4056331,76305737,93133071,1354752534.298730,-9180,11588,7708,nan,0.000000
2,3,1,0,4056331,76305737,93135692,1354752534.298730,-9240,11628,7688,nan,0.000000
2,3,1,0,4056331,76305737,93138313,1354752534.298730,-9240,11636,7568,nan,0.000000
1,3,2,0,4079143,76328257,93079875,1354752534.300599,-9236,11640,7552,nan,0.000000
1,3,2,0,4079143,76328257,93082496,1354752534.300599,-9252,11632,7700,nan,0.000000
2,3,3,0,4079143,76328303,93085117,1354752534.302600,-9248,11648,7752,nan,0.000000
2,3,3,0,4079143,76328303,93087738,1354752534.302600,-9244,11660,7708,nan,0.000000
2,3,3,0,4079143,76328303,93090359,1354752534.302600,-9276,11608,7704,nan,0.000000
2,3,3,0,4079143,76328303,93092980,1354752534.302600,-9276,11640,7696,nan,0.000000
2,3,3,0,4079143,76328303,93095601,1354752534.302600,-9248,11700,7588,nan,0.000000
2,3,4,0,4079143,76328349,93098222,1354752534.303076,-9252,11688,7660,nan,0.000000
2,3,4,0,4079143,76328349,93100843,1354752534.303076,-9364,11648,7704,nan,0.000000
2,3,4,0,4079143,76328349,93103464,1354752534.303076,-9344,11588,7660,nan,0.000000
2,3,4,0,4079143,76328349,93106085,1354752534.303076,-9348,11524,7680,nan,0.000000
2,3,4,0,4079143,76328349,93108706,1354752534.303076,-9364,11544,7668,nan,0.000000
2,3,5,0,4079143,76328394,93111327,1354752534.304642,-9432,11616,7588,nan,0.000000
2,3,5,0,4079143,76328394,93113948,1354752534.304642,-9304,11604,7560,nan,0.000000
2,3,5,0,4079143,76328394,93116569,1354752534.304642,-9296,11624,7612,nan,0.000000
2,3,5,0,4079143,76328394,93119190,1354752534.304642,-9280,11652,7652,nan,0.000000
2,3,5,0,4079143,76328394,93121811,1354752534.304642,-9300,11564,7660,nan,0.000000
2,3,6,0,4079143,76328440,93124432,1354752534.306390,-9364,11564,7660,nan,0.000000
2,3,6,0,4079143,76328440,93127053,1354752534.306390,-9460,11616,7712,nan,0.000000
2,3,6,0,4079143,76328440,93129674,1354752534.306390,-9500,11664,7680,nan,0.000000
2,3,6,0,4079143,76328440,93132295,1354752534.306390,-9424,11564,7548,nan,0.000000
2,3,6,0,4079143,76328440,93134916,1354752534.306390,-9416,11556,7616,nan,0.000000
2,3,7,0,4079143,76328486,93137537,1354752534.306847,-9484,11576,7688,nan,0.000000
2,3,7,0,4079143,76328486,93140158,1354752534.306847,-9480,11596,7708,nan,0.000000
2,3,7,0,4079143,76328486,93142779,1354752534.306847,-9356,11564,7708,nan,0.000000
2,3,7,0,4079143,76328486,93145400,1354752534.306847,-9184,11496,7380,nan,0.000000
2,3,7,0,4079143,76328486,93148021,1354752534.306847,-9256,11740,7584,nan,0.000000
2,3,8,0,4079143,76328532,93150642,1354752534.994609,-9532,11496,7848,nan,0.000000
2,3,8,0,4079143,76328532,93153263,1354752534.994609,-9336,11640,7700,nan,0.000000
2,3,8,0,4079143,76328532,93155884,1354752534.994609,-9268,11700,7464,nan,0.000000
2,3,8,0,4079143,76328532,93158505,1354752534.994609,-9336,11612,7528,nan,0.000000
2,3,8,0,4079143,76328532,93161126,1354752534.994609,-9512,11564,7760,nan,0.000000
1,3,9,0,4101956,76351072,93102687,1354752534.996530,-9220,11512,7560,nan,0.000000
1,3,9,0,4101956,76351072,93105308,1354752534.996530,-9248,11616,7620,nan,0.000000
2,3,10,0,4101956,76351118,93107929,1354752534.998366,-9296,11612,7672,nan,0.000000
2,3,10,0,4101956,76351118,93110550,1354752534.998366,-9372,11568,7584,nan,0.000000
2,3,10,0,4101956,76351118,93113171,1354752534.998366,-9348,11616,7612,nan,0.000000
2,3,10,0,4101956,76351118,93115792,1354752534.998366,-9312,11572,7672,nan,0.000000
2,3,10,0,4101956,76351118,93118413,1354752534.998366,-9292,11668,7640,nan,0.000000
2,3,11,0,4101956,76351164,93121034,1354752535.000707,-9332,11596,7732,nan,0.000000
2,3,11,0,4101956,76351164,93123655,1354752535.000707,-9288,11552,7704,nan,0.000000
2,3,11,0,4101956,76351164,93126276,1354752535.000707,-9276,11652,7692,nan,0.000000
2,3,11,0,4101956,76351164,93128897,1354752535.000707,-9316,11532,7684,nan,0.000000
2,3,11,0,4101956,76351164,93131518,1354752535.000707,-9320,11560,7708,nan,0.000000
2,3,12,0,4101956,76351210,93134139,1354752535.003510,-9340,11572,7708,nan,0.000000
2,3,12,0,4101956,76351210,93136760,1354752535.003510,-9384,11520,7768,nan,0.000000
2,3,12,0,4101956,76351210,93139381,1354752535.003510,-9456,11564,7628,nan,0.000000
2,3,12,0,4101956,76351210,93142002,1354752535.003510,-9272,11580,7616,nan,0.000000
2,3,12,0,4101956,76351210,93144623,1354752535.003510,-9284,11600,7688,nan,0.000000
2,3,13,0,4101956,76351255,93147244,1354752535.005622,-9248,11624,7740,nan,0.000000
2,3,13,0,4101956,76351255,93149865,1354752535.005622,-9304,11528,7624,nan,0.000000
2,3,13,0,4101956,76351255,93152486,1354752535.005622,-9352,11548,7744,nan,0.000000
2,3,13,0,4101956,76351255,93155107,1354752535.005622,-9396,11564,7668,nan,0.000000
2,3,13,0,4101956,76351255,93157728,1354752535.005622,-9308,11592,7664,nan,0.000000
2,3,14,0,4101956,76351301,93160349,1354752535.007091,-9244,11552,7680,nan,0.000000
2,3,14,0,4101956,76351301,93162970,1354752535.007091,-9292,11560,7656,nan,0.000000
2,3,14,0,4101956,76351301,93165591,1354752535.007091,-9272,11536,7676,nan,0.000000
2,3,14,0,4101956,76351301,93168212,1354752535.007091,-9320,11620,7684,nan,0.000000
2,3,14,0,4101956,76351301,93170833,1354752535.007091,-9344,11572,7728,nan,0.000000
2,3,15,0,4101956,76351347,93173454,1354752535.692432,-9396,11560,7640,nan,0.000000
2,3,15,0,4101956,76351347,93176075,1354752535.692432,-9272,11596,7576,nan,0.000000
2,3,15,0,4101956,76351347,93178696,1354752535.692432,-9264,11572,7704,nan,0.000000
2,3,15,0,4101956,76351347,93181317,1354752535.692432,-9364,11540,7712,nan,0.000000
2,3,15,0,4101956,76351347,93183938,1354752535.692432,-9444,11568,7748,nan,0.000000
1,3,0,0,4124768,76373884,93125500,1354752535.693768,-9180,11392,7440,nan,0.000000
1,3,0,1,4124768,76373884,93128121,1354752535.693768,-9276,11708,7724,nan,0.000000
2,3,1,1,4124768,76373930,93130742,1354752535.694245,-9536,11496,7972,nan,0.000000
2,3,1,1,4124768,76373930,93133363,1354752535.694245,-9380,11608,7684,nan,0.000000
2,3,1,1,4124768,76373930,93135984,1354752535.694245,-9252,11704,7488,nan,0.000000
2,3,1,1,4124768,76373930,93138605,1354752535.694245,-9300,11548,7600,nan,0.000000
2,3,1,1,4124768,76373930,93141226,1354752535.694245,-9408,11556,7896,nan,0.000000
2,3,2,1,4124768,76373976,93143847,1354752535.696378,-9272,11564,7816,nan,0.000000
2,3,2,1,4124768,76373976,93146468,1354752535.696378,-9236,11568,7708,nan,0.000000
2,3,2,1,4124768,76373976,93149089,1354752535.696378,-9240,11564,7660,nan,0.000000
2,3,2,1,4124768,76373976,93151710,1354752535.696378,-9204,11568,7648,nan,0.000000
2,3,2,1,4124768,76373976,93154331,1354752535.696378,-9220,11536,7660,nan,0.000000
2,3,3,1,4124768,76374022,93156952,1354752535.697181,-9288,11604,7532,nan,0.000000
2,3,3,1,4124768,76374022,93159573,1354752535.697181,-9316,11620,7700,nan,0.000000
2,3,3,1,4124768,76374022,93162194,1354752535.697181,-9312,11608,7704,nan,0.000000
2,3,3,1,4124768,76374022,93164815,1354752535.697181,-9312,11592,7628,nan,0.000000
2,3,3,1,4124768,76374022,93167436,1354752535.697181,-9264,11608,7648,nan,0.000000
2,3,4,1,4124768,76374067,93170057,1354752535.698288,-9240,11604,7576,nan,0.000000
2,3,4,1,4124768,76374067,93172678,1354752535.698288,-9244,11596,7688,nan,0.000000
2,3,4,1,4124768,76374067,93175299,1354752535.698288,-9292,11624,7700,nan,0.000000
2,3,4,1,4124768,76374067,93177920,1354752535.698288,-9344,11612,7700,nan,0.000000
2,3,4,1,4124768,76374067,93180541,1354752535.698288,-9380,11600,7672,nan,0.000000
2,3,5,1,4124768,76374113,93183162,1354752535.700348,-9460,11608,7636,nan,0.000000
2,3,5,1,4124768,76374113,93185783,1354752535.700348,-9364,11544,7604,nan,0.000000
2,3,5,1,4124768,76374113,93188404,1354752535.700348,-9356,11560,7592,nan,0.000000
2,3,5,1,4124768,76374113,93191025,1354752535.700348,-9268,11600,7584,nan,0.000000
2,3,5,1,4124768,76374113,93193646,1354752535.700348,-9412,11544,7636,nan,0.000000
2,3,6,1,4124768,76374159,93196267,1354752536.388546,-9388,11568,7664,nan,0.000000
2,3,6,1,4124768,76374159,93198888,1354752536.388546,-9472,11520,7644,nan,0.000000
2,3,6,1,4124768,76374159,93201509,1354752536.388546,-9440,11536,7596,nan,0.000000
2,3,6,1,4124768,76374159,93204130,1354752536.388546,-9364,11604,7592,nan,0.000000
2,3,6,1,4124768,76374159,93206751,1354752536.388546,-9348,11580,7624,nan,0.000000
1,3,7,0,4147581,76396699,93148312,1354752536.389667,-9436,11564,7592,nan,0.000000
1,3,7,0,4147581,76396699,93150933,1354752536.389667,-9448,11620,7544,nan,0.000000
2,3,8,0,4147581,76396744,93153554,1354752536.390558,-9440,11608,7616,nan,0.000000
2,3,8,0,4147581,76396744,93156175,1354752536.390558,-9472,11536,7612,nan,0.000000
2,3,8,0,4147581,76396744,93158796,1354752536.390558,-9488,11588,7608,nan,0.000000
2,3,8,0,4147581,76396744,93161417,1354752536.390558,-9484,11580,7708,nan,0.000000
2,3,8,0,4147581,76396744,93164038,1354752536.390558,-9300,11464,7456,nan,0.000000
2,3,9,0,4147581,76396790,93166659,1354752536.392288,-9256,11684,7416,nan,0.000000
2,3,9,0,4147581,76396790,93169280,1354752536.392288,-9552,11496,7916,nan,0.000000
2,3,9,0,4147581,76396790,93171901,1354752536.392288,-9484,11532,7652,nan,0.000000
2,3,9,0,4147581,76396790,93174522,1354752536.392288,-9252,11696,7324,nan,0.000000
2,3,9,0,4147581,76396790,93177143,1354752536.392288,-9468,11608,7524,nan,0.000000
2,3,10,0,4147581,76396836,93179764,1354752536.392948,-9652,11520,7748,nan,0.000000
2,3,10,0,4147581,76396836,93182385,1354752536.392948,-9512,11504,7628,nan,0.000000
2,3,10,0,4147581,76396836,93185006,1354752536.392948,-9340,11548,7552,nan,0.000000
2,3,10,0,4147581,76396836,93187627,1354752536.392948,-9380,11648,7504,nan,0.000000
2,3,10,0,4147581,76396836,93190248,1354752536.392948,-9480,11688,7520,nan,0.000000
2,3,11,0,4147581,76396881,93192869,1354752536.394291,-9432,11580,7532,nan,0.000000
2,3,11,0,4147581,76396881,93195490,1354752536.394291,-9340,11532,7480,nan,0.000000
2,3,11,0,4147581,76396881,93198111,1354752536.394291,-9400,11632,7620,nan,0.000000
2,3,11,0,4147581,76396881,93200732,1354752536.394291,-9492,11644,7636,nan,0.000000
2,3,11,0,4147581,76396881,93203353,1354752536.394291,-9300,11648,7584,nan,0.000000
2,3,12,0,4147581,76396928,93205974,1354752536.396318,-9352,11616,7512,nan,0.000000
2,3,12,0,4147581,76396928,93208595,1354752536.396318,-9416,11616,7536,nan,0.000000
2,3,12,0,4147581,76396928,93211216,1354752536.396318,-9444,11644,7628,nan,0.000000
2,3,12,0,4147581,76396928,93213837,1354752536.396318,-9320,11644,7568,nan,0.000000
2,3,12,0,4147581,76396928,93216458,1354752536.396318,-9324,11580,7620,nan,0.000000
2,3,13,0,4147581,76396973,93219079,1354752537.084650,-9376,11608,7556,nan,0.000000
2,3,13,0,4147581,76396973,93221700,1354752537.084650,-9332,11652,7492,nan,0.000000
2,3,13,0,4147581,76396973,93224321,1354752537.084650,-9372,11628,7564,nan,0.000000
2,3,13,0,4147581,76396973,93226942,1354752537.084650,-9336,11636,7616,nan,0.000000
2,3,13,0,4147581,76396973,93229563,1354752537.084650,-9260,11676,7564,nan,0.000000
1,3,14,0,4170393,76419511,93171125,1354752537.085789,-9216,11652,7576,nan,0.000000
1,3,14,2,4170393,76419511,93173746,1354752537.085789,-9240,11628,7556,nan,0.000000
2,3,15,2,4170393,76419557,93176367,1354752537.086462,-9304,11676,7568,nan,0.000000
2,3,15,2,4170393,76419557,93178988,1354752537.086462,-9328,11652,7572,nan,0.000000
2,3,15,2,4170393,76419557,93181609,1354752537.086462,-9344,11628,7500,nan,0.000000
2,3,15,2,4170393,76419557,93184230,1354752537.086462,-9228,11672,7544,nan,0.000000
2,3,15,2,4170393,76419557,93186851,1354752537.086462,-9208,11596,7640,nan,0.000000
2,3,0,2,4170393,76419603,93189472,1354752537.088373,-9236,11612,7648,nan,0.000000
2,3,0,2,4170393,76419603,93192093,1354752537.088373,-9252,11720,7612,nan,0.000000
2,3,0,2,4170393,76419603,93194714,1354752537.088373,-9420,11656,7664,nan,0.000000
2,3,0,2,4170393,76419603,93197335,1354752537.088373,-9144,11544,7380,nan,0.000000
2,3,0,2,4170393,76419603,93199956,1354752537.088373,-9364,11624,7800,nan,0.000000
2,3,1,2,4170393,76419648,93202577,1354752537.090266,-9548,11476,7868,nan,0.000000
2,3,1,2,4170393,76419648,93205198,1354752537.090266,-9324,11700,7384,nan,0.000000
2,3,1,2,4170393,76419648,93207819,1354752537.090266,-9280,11668,7492,nan,0.000000
2,3,1,2,4170393,76419648,93210440,1354752537.090266,-9540,11520,7724,nan,0.000000
2,3,1,2,4170393,76419648,93213061,1354752537.090266,-9484,11480,7792,nan,0.000000
2,3,2,2,4170393,76419694,93215682,1354752537.091226,-9324,11624,7640,nan,0.000000
2,3,2,2,4170393,76419694,93218303,1354752537.091226,-9364,11672,7468,nan,0.000000
2,3,2,2,4170393,76419694,93220924,1354752537.091226,-9384,11696,7576,nan,0.000000
2,3,2,2,4170393,76419694,93223545,1354752537.091226,-9432,11572,7676,nan,0.000000
2,3,2,2,4170393,76419694,93226166,1354752537.091226,-9264,11544,7556,nan,0.000000
2,3,3,2,4170393,76419740,93228787,1354752537.092313,-9272,11564,7508,nan,0.000000
2,3,3,2,4170393,76419740,93231408,1354752537.092313,-9324,11556,7692,nan,0.000000
2,3,3,2,4170393,76419740,93234029,1354752537.092313,-9384,11592,7640,nan,0.000000
2,3,3,2,4170393,76419740,93236650,1354752537.092313,-9472,11640,7624,nan,0.000000
2,3,3,2,4170393,76419740,93239271,1354752537.092313,-9456,11596,7492,nan,0.000000
2,3,4,2,4170393,76419786,93241892,1354752537.780598,-9412,11664,7576,nan,0.000000
2,3,4,2,4170393,76419786,93244513,1354752537.780598,-9476,11576,7576,nan,0.000000
2,3,4,2,4170393,76419786,93247134,1354752537.780598,-9480,11584,7604,nan,0.000000
2,3,4,2,4170393,76419786,93249755,1354752537.780598,-9524,11592,7556,nan,0.000000
2,3,4,2,4170393,76419786,93252376,1354752537.780598,-9388,11624,7600,nan,0.000000
1,3,5,0,4193206,76442326,93193937,1354752537.782305,-9388,11656,7504,nan,0.000000
1,3,5,0,4193206,76442326,93196558,1354752537.782305,-9388,11584,7508,nan,0.000000
2,3,6,0,4193206,76442372,93199179,1354752537.782749,-9432,11588,7560,nan,0.000000
2,3,6,0,4193206,76442372,93201800,1354752537.782749,-9396,11584,7592,nan,0.000000
2,3,6,0,4193206,76442372,93204421,1354752537.782749,-9380,11604,7608,nan,0.000000
2,3,6,0,4193206,76442372,93207042,1354752537.782749,-9476,11560,7620,nan,0.000000
2,3,6,0,4193206,76442372,93209663,1354752537.782749,-9432,11592,7552,nan,0.000000
2,3,7,0,4193206,76442417,93212284,1354752537.784298,-9280,11596,7568,nan,0.000000
2,3,7,0,4193206,76442417,93214905,1354752537.784298,-9424,11592,7548,nan,0.000000
2,3,7,0,4193206,76442417,93217526,1354752537.784298,-9496,11624,7600,nan,0.000000
2,3,7,0,4193206,76442417,93220147,1354752537.784298,-9480,11664,7592,nan,0.000000
2,3,7,0,4193206,76442417,93222768,1354752537.784298,-9528,11612,7560,nan,0.000000
2,3,8,0,4193206,76442463,93225389,1354752537.786504,-9328,11452,7288,nan,0.000000
2,3,8,0,4193206,76442463,93228010,1354752537.786504,-9248,11736,7280,nan,0.000000
2,3,8,0,4193206,76442463,93230631,1354752537.786504,-9496,11464,7876,nan,0.000000
2,3,8,0,4193206,76442463,93233252,1354752537.786504,-9276,11620,7908,nan,0.000000
2,3,8,0,4193206,76442463,93235873,1354752537.786504,-9120,11868,7584,nan,0.000000
2,3,9,0,4193206,76442509,93238494,1354752537.787143,-9208,11740,7416,nan,0.000000
2,3,9,0,4193206,76442509,93241115,1354752537.787143,-9392,11656,7552,nan,0.000000
2,3,9,0,4193206,76442509,93243736,1354752537.787143,-9456,11656,7776,nan,0.000000
2,3,9,0,4193206,76442509,93246357,1354752537.787143,-9320,11576,7708,nan,0.000000
2,3,9,0,4193206,76442509,93248978,1354752537.787143,-9256,11624,7648,nan,0.000000
2,3,10,0,4193206,76442555,93251599,1354752537.788594,-9192,11680,7480,nan,0.000000
2,3,10,0,4193206,76442555,93254220,1354752537.788594,-9052,11640,7516,nan,0.000000
2,3,10,0,4193206,76442555,93256841,1354752537.788594,-8984,11608,7580,nan,0.000000
2,3,10,0,4193206,76442555,93259462,1354752537.788594,-9064,11504,7648,nan,0.000000
2,3,10,0,4193206,76442555,93262083,1354752537.788594,-9208,11512,7724,nan,0.000000
2,3,11,0,4193206,76442601,93264704,1354752538.476663,-9256,11596,7596,nan,0.000000
2,3,11,0,4193206,76442601,93267325,1354752538.476663,-9236,11708,7440,nan,0.000000
2,3,11,0,4193206,76442601,93269946,1354752538.476663,-9308,11760,7392,nan,0.000000
2,3,11,0,4193206,76442601,93272567,1354752538.476663,-9380,11756,7448,nan,0.000000
2,3,11,0,4193206,76442601,93275188,1354752538.476663,-9496,11800,7620,nan,0.000000
1,3,12,0,4216018,76465138,93216750,1354752538.479540,-9384,11792,7636,nan,0.000000
1,3,12,0,4216018,76465138,93219371,1354752538.479540,-9292,11836,7484,nan,0.000000
2,3,13,0,4216018,76465184,93221992,1354752538.483238,-9172,11780,7380,nan,0.000000
2,3,13,0,4216018,76465184,93224613,1354752538.483238,-9032,11748,7432,nan,0.000000
2,3,13,0,4216018,76465184,93227234,1354752538.483238,-9004,11776,7508,nan,0.000000
2,3,13,0,4216018,76465184,93229855,1354752538.483238,-9120,11832,7468,nan,0.000000
2,3,13,0,4216018,76465184,93232476,1354752538.483238,-9208,11856,7468,nan,0.000000
2,3,14,0,4216018,76465230,93235097,1354752538.488958,-9220,11824,7408,nan,0.000000
2,3,14,0,4216018,76465230,93237718,1354752538.488958,-9232,11788,7516,nan,0.000000
2,3,14,0,4216018,76465230,93240339,1354752538.488958,-9100,11756,7520,nan,0.000000
2,3,14,0,4216018,76465230,93242960,1354752538.488958,-8960,11816,7464,nan,0.000000
2,3,14,0,4216018,76465230,93245581,1354752538.488958,-9004,11824,7544,nan,0.000000
2,3,15,0,4216018,76465276,93248202,1354752538.494772,-9176,11824,7552,nan,0.000000
2,3,15,0,4216018,76465276,93250823,1354752538.494772,-9260,11864,7572,nan,0.000000
2,3,15,0,4216018,76465276,93253444,1354752538.494772,-9160,11660,7316,nan,0.000000
2,3,15,0,4216018,76465276,93256065,1354752538.494772,-8936,11880,7468,nan,0.000000
2,3,15,0,4216018,76465276,93258686,1354752538.494772,-9224,11816,7948,nan,0.000000
2,3,0,0,4216018,76465322,93261307,1354752538.497956,-9300,11732,7960,nan,0.000000
2,3,0,0,4216018,76465322,93263928,1354752538.497956,-9348,11876,7776,nan,0.000000
2,3,0,0,4216018,76465322,93266549,1354752538.497956,-9488,11776,7512,nan,0.000000
2,3,0,0,4216018,76465322,93269170,1354752538.497956,-9524,11576,7668,nan,0.000000
2,3,0,0,4216018,76465322,93271791,1354752538.497956,-9252,11500,7744,nan,0.000000
2,3,1,0,4216018,76465367,93274412,1354752538.501569,-9152,11424,7756,nan,0.000000
2,3,1,0,4216018,76465367,93277033,1354752538.501569,-9140,11552,7724,nan,0.000000
2,3,1,0,4216018,76465367,93279654,1354752538.501569,-9220,11560,7832,nan,0.000000
2,3,1,0,4216018,76465367,93282275,1354752538.501569,-9208,11480,7704,nan,0.000000
2,3,1,0,4216018,76465367,93284896,1354752538.501569,-9164,11440,7608,nan,0.000000
2,3,2,0,4216018,76465413,93287517,1354752539.172542,-9256,11420,7792,nan,0.000000
2,3,2,0,4216018,76465413,93290138,1354752539.172542,-9492,11444,7820,nan,0.000000
2,3,2,0,4216018,76465413,93292759,1354752539.172542,-9528,11492,7712,nan,0.000000
2,3,2,0,4216018,76465413,93295380,1354752539.172542,-9556,11484,7616,nan,0.000000
2,3,2,0,4216018,76465413,93298001,1354752539.172542,-9548,11424,7620,nan,0.000000
1,3,3,0,4238831,76487951,93239562,1354752539.174255,-9488,11484,7760,nan,0.000000
1,3,3,0,4238831,76487951,93242183,1354752539.174255,-9428,11504,7656,nan,0.000000
2,3,4,0,4238831,76487997,93244804,1354752539.176250,-9392,11484,7660,nan,0.000000
2,3,4,0,4238831,76487997,93247425,1354752539.176250,-9216,11532,7660,nan,0.000000
2,3,4,0,4238831,76487997,93250046,1354752539.176250,-9228,11564,7752,nan,0.000000
2,3,4,0,4238831,76487997,93252667,1354752539.176250,-9384,11604,7756,nan,0.000000
2,3,4,0,4238831,76487997,93255288,1354752539.176250,-9524,11580,7724,nan,0.000000
2,3,5,0,4238831,76488043,93257909,1354752539.177174,-9500,11604,7632,nan,0.000000
2,3,5,0,4238831,76488043,93260530,1354752539.177174,-9484,11516,7720,nan,0.000000
2,3,5,0,4238831,76488043,93263151,1354752539.177174,-9468,11572,7768,nan,0.000000
2,3,5,0,4238831,76488043,93265772,1354752539.177174,-9520,11548,7636,nan,0.000000
2,3,5,0,4238831,76488043,93268393,1354752539.177174,-9568,11520,7572,nan,0.000000
2,3,6,0,4238831,76488088,93271014,1354752539.178224,-9564,11496,7660,nan,0.000000
2,3,6,0,4238831,76488088,93273635,1354752539.178224,-9488,11452,7652,nan,0.000000
2,3,6,0,4238831,76488088,93276256,1354752539.178224,-9508,11560,7684,nan,0.000000
2,3,6,0,4238831,76488088,93278877,1354752539.178224,-9472,11432,7500,nan,0.000000
2,3,6,0,4238831,76488088,93281498,1354752539.178224,-9204,11568,7436,nan,0.000000
2,3,7,0,4238831,76488134,93284119,1354752539.180628,-9484,11572,7952,nan,0.000000
2,3,7,0,4238831,76488134,93286740,1354752539.180628,-9468,11424,7860,nan,0.000000
2,3,7,0,4238831,76488134,93289361,1354752539.180628,-9332,11616,7416,nan,0.000000
2,3,7,0,4238831,76488134,93291982,1354752539.180628,-9448,11568,7300,nan,0.000000
2,3,7,0,4238831,76488134,93294603,1354752539.180628,-9516,11528,7560,nan,0.000000
2,3,8,0,4238831,76488180,93297224,1354752539.181286,-9380,11592,7660,nan,0.000000
2,3,8,0,4238831,76488180,93299845,1354752539.181286,-9248,11516,7660,nan,0.000000
2,3,8,0,4238831,76488180,93302466,1354752539.181286,-9356,11572,7736,nan,0.000000
2,3,8,0,4238831,76488180,93305087,1354752539.181286,-9420,11588,7748,nan,0.000000
2,3,8,0,4238831,76488180,93307708,1354752539.181286,-9460,11536,7584,nan,0.000000
2,3,9,0,4238831,76488226,93310329,1354752539.868578,-9316,11632,7512,nan,0.000000
2,3,9,0,4238831,76488226,93312950,1354752539.868578,-9500,11576,7600,nan,0.000000
2,3,9,0,4238831,76488226,93315571,1354752539.868578,-9532,11532,7724,nan,0.000000
2,3,9,0,4238831,76488226,93318192,1354752539.868578,-9464,11500,7600,nan,0.000000
2,3,9,0,4238831,76488226,93320813,1354752539.868578,-9496,11536,7516,nan,0.000000
1,3,10,0,4261644,76510765,93262375,1354752539.870228,-9348,11568,7676,nan,0.000000
1,3,10,0,4261644,76510765,93264996,1354752539.870228,-9292,11552,7600,nan,0.000000
2,3,11,0,4261644,76510811,93267617,1354752539.872230,-9256,11568,7644,nan,0.000000
2,3,11,0,4261644,76510811,93270238,1354752539.872230,-9268,11604,7628,nan,0.000000
2,3,11,0,4261644,76510811,93272859,1354752539.872230,-9224,11676,7648,nan,0.000000
2,3,11,0,4261644,76510811,93275480,1354752539.872230,-9200,11724,7628,nan,0.000000
2,3,11,0,4261644,76510811,93278101,1354752539.872230,-9288,11700,7768,nan,0.000000
2,3,12,0,4261644,76510857,93280722,1354752539.873035,-9276,11608,7636,nan,0.000000
2,3,12,0,4261644,76510857,93283343,1354752539.873035,-9356,11560,7572,nan,0.000000
2,3,12,0,4261644,76510857,93285964,1354752539.873035,-9460,11592,7560,nan,0.000000
2,3,12,0,4261644,76510857,93288585,1354752539.873035,-9460,11596,7600,nan,0.000000
2,3,12,0,4261644,76510857,93291206,1354752539.873035,-9472,11624,7564,nan,0.000000
2,3,13,0,4261644,76510902,93293827,1354752539.874235,-9488,11608,7636,nan,0.000000
2,3,13,0,4261644,76510902,93296448,1354752539.874235,-9420,11568,7680,nan,0.000000
2,3,13,0,4261644,76510902,93299069,1354752539.874235,-9416,11588,7688,nan,0.000000
2,3,13,0,4261644,76510902,93301690,1354752539.874235,-9456,11632,7672,nan,0.000000
2,3,13,0,4261644,76510902,93304311,1354752539.874235,-9252,11528,7448,nan,0.000000
2,3,14,0,4261644,76510949,93306932,1354752539.876480,-9156,11712,7488,nan,0.000000
2,3,14,0,4261644,76510949,93309553,1354752539.876480,-9428,11568,7944,nan,0.000000
2,3,14,0,4261644,76510949,93312174,1354752539.876480,-9344,11508,7788,nan,0.000000
2,3,14,0,4261644,76510949,93314795,1354752539.876480,-9212,11676,7448,nan,0.000000
2,3,14,0,4261644,76510949,93317416,1354752539.876480,-9332,11664,7468,nan,0.000000
2,3,15,0,4261644,76510994,93320037,1354752539.877117,-9468,11652,7684,nan,0.000000
2,3,15,0,4261644,76510994,93322658,1354752539.877117,-9300,11592,7720,nan,0.000000
2,3,15,0,4261644,76510994,93325279,1354752539.877117,-9176,11556,7592,nan,0.000000
2,3,15,0,4261644,76510994,93327900,1354752539.877117,-9276,11608,7704,nan,0.000000
2,3,15,0,4261644,76510994,93330521,1354752539.877117,-9276,11644,7708,nan,0.000000
2,3,0,0,4261644,76511040,93333142,1354752540.564614,-9276,11632,7620,nan,0.000000
2,3,0,0,4261644,76511040,93335763,1354752540.564614,-9332,11656,7508,nan,0.000000
2,3,0,0,4261644,76511040,93338384,1354752540.564614,-9308,11560,7676,nan,0.000000
2,3,0,0,4261644,76511040,93341005,1354752540.564614,-9360,11608,7664,nan,0.000000
2,3,0,0,4261644,76511040,93343626,1354752540.564614,-9316,11612,7592,nan,0.000000
1,3,1,0,4284457,76533581,93285188,1354752540.566237,-9252,11632,7656,nan,0.000000
1,3,1,0,4284457,76533581,93287809,1354752540.566237,-9356,11584,7684,nan,0.000000
2,3,2,0,4284457,76533627,93290430,1354752540.568276,-9304,11524,7612,nan,0.000000
2,3,2,0,4284457,76533627,93293051,1354752540.568276,-9308,11600,7700,nan,0.000000
2,3,2,0,4284457,76533627,93295672,1354752540.568276,-9348,11652,7688,nan,0.000000
2,3,2,0,4284457,76533627,93298293,1354752540.568276,-9272,11616,7664,nan,0.000000
2,3,2,0,4284457,76533627,93300914,1354752540.568276,-9288,11588,7720,nan,0.000000
2,3,3,0,4284457,76533673,93303535,1354752540.570218,-9408,11492,7604,nan,0.000000
2,3,3,0,4284457,76533673,93306156,1354752540.570218,-9240,11548,7616,nan,0.000000
2,3,3,0,4284457,76533673,93308777,1354752540.570218,-9408,11604,7696,nan,0.000000
2,3,3,0,4284457,76533673,93311398,1354752540.570218,-9372,11640,7708,nan,0.000000
2,3,3,0,4284457,76533673,93314019,1354752540.570218,-9360,11640,7668,nan,0.000000
2,3,4,0,4284457,76533718,93316640,1354752540.571401,-9252,11584,7596,nan,0.000000
2,3,4,0,4284457,76533718,93319261,1354752540.571401,-9268,11544,7696,nan,0.000000
2,3,4,0,4284457,76533718,93321882,1354752540.571401,-9332,11608,7652,nan,0.000000
2,3,4,0,4284457,76533718,93324503,1354752540.571401,-9388,11600,7704,nan,0.000000
2,3,4,0,4284457,76533718,93327124,1354752540.571401,-9304,11492,7528,nan,0.000000
2,3,5,0,4284457,76533764,93329745,1354752540.572328,-9176,11640,7372,nan,0.000000
2,3,5,0,4284457,76533764,93332366,1354752540.572328,-9416,11520,7864,nan,0.000000
2,3,5,0,4284457,76533764,93334987,1354752540.572328,-9484,11464,7880,nan,0.000000
2,3,5,0,4284457,76533764,93337608,1354752540.572328,-9264,11708,7452,nan,0.000000
2,3,5,0,4284457,76533764,93340229,1354752540.572328,-9284,11732,7476,nan,0.000000
2,3,6,0,4284457,76533810,93342850,1354752540.574248,-9436,11632,7772,nan,0.000000
2,3,6,0,4284457,76533810,93345471,1354752540.574248,-9472,11556,7784,nan,0.000000
2,3,6,0,4284457,76533810,93348092,1354752540.574248,-9396,11512,7632,nan,0.000000
2,3,6,0,4284457,76533810,93350713,1354752540.574248,-9464,11548,7612,nan,0.000000
2,3,6,0,4284457,76533810,93353334,1354752540.574248,-9388,11556,7652,nan,0.000000
2,3,7,0,4284457,76533856,93355955,1354752541.262580,-9284,11628,7620,nan,0.000000
2,3,7,0,4284457,76533856,93358576,1354752541.262580,-9340,11544,7652,nan,0.000000
2,3,7,0,4284457,76533856,93361197,1354752541.262580,-9404,11456,7764,nan,0.000000
2,3,7,0,4284457,76533856,93363818,1354752541.262580,-9288,11476,7640,nan,0.000000
2,3,7,0,4284457,76533856,93366439,1354752541.262580,-9264,11560,7608,nan,0.000000
1,3,8,0,4307271,76556394,93308001,1354752541.263748,-9472,11488,7744,nan,0.000000
1,3,8,0,4307271,76556394,93310622,1354752541.263748,-9496,11536,7736,nan,0.000000
2,3,9,0,4307271,76556439,93313243,1354752541.264407,-9480,11472,7644,nan,0.000000
2,3,9,0,4307271,76556439,93315864,1354752541.264407,-9368,11528,7688,nan,0.000000
2,3,9,0,4307271,76556439,93318485,1354752541.264407,-9408,11532,7652,nan,0.000000
2,3,9,0,4307271,76556439,93321106,1354752541.264407,-9400,11508,7664,nan,0.000000
2,3,9,0,4307271,76556439,93323727,1354752541.264407,-9404,11516,7648,nan,0.000000
2,3,10,0,4307271,76556486,93326348,1354752541.266205,-9440,11504,7628,nan,0.000000
2,3,10,0,4307271,76556486,93328969,1354752541.266205,-9324,11500,7616,nan,0.000000
2,3,10,0,4307271,76556486,93331590,1354752541.266205,-9356,11548,7776,nan,0.000000
2,3,10,0,4307271,76556486,93334211,1354752541.266205,-9484,11572,7756,nan,0.000000
2,3,10,0,4307271,76556486,93336832,1354752541.266205,-9444,11544,7616,nan,0.000000
2,3,11,0,4307271,76556531,93339453,1354752541.268361,-9488,11484,7684,nan,0.000000
2,3,11,0,4307271,76556531,93342074,1354752541.268361,-9428,11512,7608,nan,0.000000
2,3,11,0,4307271,76556531,93344695,1354752541.268361,-9412,11588,7660,nan,0.000000
2,3,11,0,4307271,76556531,93347316,1354752541.268361,-9488,11580,7752,nan,0.000000
2,3,11,0,4307271,76556531,93349937,1354752541.268361,-9348,11488,7528,nan,0.000000
2,3,12,0,4307271,76556577,93352558,1354752541.272520,-9256,11692,7484,nan,0.000000
2,3,12,0,4307271,76556577,93355179,1354752541.272520,-9520,11544,7952,nan,0.000000
2,3,12,0,4307271,76556577,93357800,1354752541.272520,-9484,11468,7780,nan,0.000000
2,3,12,0,4307271,76556577,93360421,1354752541.272520,-9288,11708,7452,nan,0.000000
2,3,12,0,4307271,76556577,93363042,1354752541.272520,-9364,11684,7408,nan,0.000000
2,3,13,0,4307271,76556623,93365663,1354752541.275645,-9492,11552,7652,nan,0.000000
2,3,13,0,4307271,76556623,93368284,1354752541.275645,-9324,11572,7720,nan,0.000000
2,3,13,0,4307271,76556623,93370905,1354752541.275645,-9272,11528,7668,nan,0.000000
2,3,13,0,4307271,76556623,93373526,1354752541.275645,-9220,11600,7720,nan,0.000000
2,3,13,0,4307271,76556623,93376147,1354752541.275645,-9272,11656,7696,nan,0.000000
2,3,14,0,4307271,76556669,93378768,1354752541.958291,-9264,11620,7544,nan,0.000000
2,3,14,0,4307271,76556669,93381389,1354752541.958291,-9336,11620,7532,nan,0.000000
2,3,14,0,4307271,76556669,93384010,1354752541.958291,-9348,11552,7680,nan,0.000000
2,3,14,0,4307271,76556669,93386631,1354752541.958291,-9388,11560,7660,nan,0.000000
2,3,14,0,4307271,76556669,93389252,1354752541.958291,-9328,11620,7580,nan,0.000000
1,3,15,0,4330084,76579210,93330815,1354752541.959161,-9380,11564,7672,nan,0.000000
1,3,15,0,4330084,76579210,93333436,1354752541.959161,-9484,11564,7712,nan,0.000000
2,3,0,0,4330084,76579256,93336057,1354752541.960144,-9376,11532,7640,nan,0.000000
2,3,0,0,4330084,76579256,93338678,1354752541.960144,-9308,11564,7560,nan,0.000000
2,3,0,0,4330084,76579256,93341299,1354752541.960144,-9300,11596,7620,nan,0.000000
2,3,0,0,4330084,76579256,93343920,1354752541.960144,-9352,11588,7596,nan,0.000000
2,3,0,0,4330084,76579256,93346541,1354752541.960144,-9332,11596,7640,nan,0.000000
2,3,1,0,4330084,76579302,93349162,1354752541.962176,-9252,11596,7632,nan,0.000000
2,3,1,0,4330084,76579302,93351783,1354752541.962176,-9256,11584,7632,nan,0.000000
2,3,1,0,4330084,76579302,93354404,1354752541.962176,-9364,11596,7648,nan,0.000000
2,3,1,0,4330084,76579302,93357025,1354752541.962176,-9444,11604,7544,nan,0.000000
2,3,1,0,4330084,76579302,93359646,1354752541.962176,-9360,11668,7528,nan,0.000000
2,3,2,0,4330084,76579348,93362267,1354752541.963095,-9408,11656,7580,nan,0.000000
2,3,2,0,4330084,76579348,93364888,1354752541.963095,-9308,11604,7572,nan,0.000000
2,3,2,0,4330084,76579348,93367509,1354752541.963095,-9304,11612,7672,nan,0.000000
2,3,2,0,4330084,76579348,93370130,1354752541.963095,-9348,11504,7596,nan,0.000000
2,3,2,0,4330084,76579348,93372751,1354752541.963095,-9116,11672,7344,nan,0.000000
2,3,3,0,4330084,76579393,93375372,1354752541.964161,-9340,11692,7772,nan,0.000000
2,3,3,0,4330084,76579393,93377993,1354752541.964161,-9476,11536,7848,nan,0.000000
2,3,3,0,4330084,76579393,93380614,1354752541.964161,-9260,11704,7504,nan,0.000000
2,3,3,0,4330084,76579393,93383235,1354752541.964161,-9212,11728,7392,nan,0.000000
2,3,3,0,4330084,76579393,93385856,1354752541.964161,-9392,11644,7680,nan,0.000000
2,3,4,0,4330084,76579439,93388477,1354752541.966180,-9444,11616,7736,nan,0.000000
2,3,4,0,4330084,76579439,93391098,1354752541.966180,-9268,11588,7540,nan,0.000000
2,3,4,0,4330084,76579439,93393719,1354752541.966180,-9208,11648,7536,nan,0.000000
2,3,4,0,4330084,76579439,93396340,1354752541.966180,-9256,11656,7632,nan,0.000000
2,3,4,0,4330084,76579439,93398961,1354752541.966180,-9308,11676,7540,nan,0.000000
2,3,5,0,4330084,76579485,93401582,1354752542.654510,-9268,11632,7460,nan,0.000000
2,3,5,0,4330084,76579485,93404203,1354752542.654510,-9292,11608,7552,nan,0.000000
2,3,5,0,4330084,76579485,93406824,1354752542.654510,-9288,11620,7596,nan,0.000000
2,3,5,0,4330084,76579485,93409445,1354752542.654510,-9292,11676,7580,nan,0.000000
2,3,5,0,4330084,76579485,93412066,1354752542.654510,-9272,11708,7524,nan,0.000000
1,3,6,0,4352898,76602023,93353628,1354752542.655723,-9192,11696,7580,nan,0.000000
1,3,6,0,4352898,76602023,93356249,1354752542.655723,-9240,11648,7576,nan,0.000000
2,3,7,0,4352898,76602068,93358870,1354752542.656238,-9332,11668,7568,nan,0.000000
2,3,7,0,4352898,76602068,93361491,1354752542.656238,-9412,11732,7592,nan,0.000000
2,3,7,0,4352898,76602068,93364112,1354752542.656238,-9340,11692,7504,nan,0.000000
2,3,7,0,4352898,76602068,93366733,1354752542.656238,-9216,11656,7432,nan,0.000000
2,3,7,0,4352898,76602068,93369354,1354752542.656238,-9112,11648,7528,nan,0.000000
2,3,8,0,4352898,76602114,93371975,1354752542.658297,-9248,11680,7676,nan,0.000000
2,3,8,0,4352898,76602114,93374596,1354752542.658297,-9400,11664,7628,nan,0.000000
2,3,8,0,4352898,76602114,93377217,1354752542.658297,-9508,11680,7440,nan,0.000000
2,3,8,0,4352898,76602114,93379838,1354752542.658297,-9528,11644,7348,nan,0.000000
2,3,8,0,4352898,76602114,93382459,1354752542.658297,-9480,11568,7480,nan,0.000000
2,3,9,0,4352898,76602160,93385080,1354752542.660196,-9376,11676,7668,nan,0.000000
2,3,9,0,4352898,76602160,93387701,1354752542.660196,-9324,11684,7636,nan,0.000000
2,3,9,0,4352898,76602160,93390322,1354752542.660196,-9188,11632,7408,nan,0.000000
2,3,9,0,4352898,76602160,93392943,1354752542.660196,-9100,11824,7392,nan,0.000000
2,3,9,0,4352898,76602160,93395564,1354752542.660196,-9400,11604,7848,nan,0.000000
2,3,10,0,4352898,76602206,93398185,1354752542.660805,-9448,11532,7568,nan,0.000000
2,3,10,0,4352898,76602206,93400806,1354752542.660805,-9208,11828,7272,nan,0.000000
2,3,10,0,4352898,76602206,93403427,1354752542.660805,-9300,11776,7488,nan,0.000000
2,3,10,0,4352898,76602206,93406048,1354752542.660805,-9552,11700,7804,nan,0.000000
2,3,10,0,4352898,76602206,93408669,1354752542.660805,-9436,11584,7700,nan,0.000000
2,3,11,0,4352898,76602251,93411290,1354752542.662400,-9240,11532,7392,nan,0.000000
2,3,11,0,4352898,76602251,93413911,1354752542.662400,-9252,11568,7528,nan,0.000000
2,3,11,0,4352898,76602251,93416532,1354752542.662400,-9460,11584,7468,nan,0.000000
2,3,11,0,4352898,76602251,93419153,1354752542.662400,-9412,11572,7444,nan,0.000000
2,3,11,0,4352898,76602251,93421774,1354752542.662400,-9452,11648,7544,nan,0.000000
2,3,12,0,4352898,76602297,93424395,1354752543.350533,-9496,11548,7644,nan,0.000000
2,3,12,0,4352898,76602297,93427016,1354752543.350533,-9396,11612,7592,nan,0.000000
2,3,12,0,4352898,76602297,93429637,1354752543.350533,-9340,11668,7560,nan,0.000000
2,3,12,0,4352898,76602297,93432258,1354752543.350533,-9360,11636,7520,nan,0.000000
2,3,12,0,4352898,76602297,93434879,1354752543.350533,-9280,11672,7564,nan,0.000000
1,3,13,0,4375711,76624839,93376442,1354752543.352158,-9388,11568,7632,nan,0.000000
1,3,13,0,4375711,76624839,93379063,1354752543.352158,-9448,11548,7628,nan,0.000000
2,3,14,0,4375711,76624885,93381684,1354752543.352741,-9372,11552,7552,nan,0.000000
2,3,14,0,4375711,76624885,93384305,1354752543.352741,-9368,11580,7556,nan,0.000000
2,3,14,0,4375711,76624885,93386926,1354752543.352741,-9336,11584,7604,nan,0.000000
2,3,14,0,4375711,76624885,93389547,1354752543.352741,-9456,11556,7540,nan,0.000000
2,3,14,0,4375711,76624885,93392168,1354752543.352741,-9412,11592,7528,nan,0.000000
2,3,15,0,4375711,76624930,93394789,1354752543.354139,-9364,11564,7512,nan,0.000000
2,3,15,0,4375711,76624930,93397410,1354752543.354139,-9404,11592,7624,nan,0.000000
2,3,15,0,4375711,76624930,93400031,1354752543.354139,-9404,11612,7584,nan,0.000000
2,3,15,0,4375711,76624930,93402652,1354752543.354139,-9400,11672,7608,nan,0.000000
2,3,15,0,4375711,76624930,93405273,1354752543.354139,-9516,11584,7588,nan,0.000000
2,3,0,0,4375711,76624976,93407894,1354752543.356178,-9216,11544,7320,nan,0.000000
2,3,0,0,4375711,76624976,93410515,1354752543.356178,-9332,11668,7592,nan,0.000000
2,3,0,0,4375711,76624976,93413136,1354752543.356178,-9336,11544,7792,nan,0.000000
2,3,0,0,4375711,76624976,93415757,1354752543.356178,-9248,11672,7508,nan,0.000000
2,3,0,0,4375711,76624976,93418378,1354752543.356178,-9360,11732,7456,nan,0.000000
2,3,1,0,4375711,76625022,93420999,1354752543.356845,-9576,11576,7624,nan,0.000000
2,3,1,0,4375711,76625022,93423620,1354752543.356845,-9520,11552,7620,nan,0.000000
2,3,1,0,4375711,76625022,93426241,1354752543.356845,-9376,11604,7568,nan,0.000000
2,3,1,0,4375711,76625022,93428862,1354752543.356845,-9312,11644,7516,nan,0.000000
2,3,1,0,4375711,76625022,93431483,1354752543.356845,-9364,11696,7544,nan,0.000000
2,3,2,0,4375711,76625068,93434104,1354752543.358475,-9328,11600,7484,nan,0.000000
2,3,2,0,4375711,76625068,93436725,1354752543.358475,-9400,11672,7532,nan,0.000000
2,3,2,0,4375711,76625068,93439346,1354752543.358475,-9444,11636,7656,nan,0.000000
2,3,2,0,4375711,76625068,93441967,1354752543.358475,-9444,11616,7656,nan,0.000000
2,3,2,0,4375711,76625068,93444588,1354752543.358475,-9396,11696,7492,nan,0.000000
2,3,3,0,4375711,76625114,93447209,1354752544.046124,-9396,11668,7480,nan,0.000000
2,3,3,0,4375711,76625114,93449830,1354752544.046124,-9356,11700,7580,nan,0.000000
2,3,3,0,4375711,76625114,93452451,1354752544.046124,-9424,11668,7652,nan,0.000000
2,3,3,0,4375711,76625114,93455072,1354752544.046124,-9432,11564,7548,nan,0.000000
2,3,3,0,4375711,76625114,93457693,1354752544.046124,-9456,11556,7576,nan,0.000000
1,3,4,0,4398524,76647653,93399255,1354752544.048133,-9312,11740,7560,nan,0.000000
1,3,4,0,4398524,76647653,93401876,1354752544.048133,-9396,11772,7528,nan,0.000000
2,3,5,0,4398524,76647699,93404497,1354752544.048489,-9408,11728,7464,nan,0.000000
2,3,5,0,4398524,76647699,93407118,1354752544.048489,-9396,11644,7548,nan,0.000000
2,3,5,0,4398524,76647699,93409739,1354752544.048489,-9304,11688,7456,nan,0.000000
2,3,5,0,4398524,76647699,93412360,1354752544.048489,-9340,11712,7516,nan,0.000000
2,3,5,0,4398524,76647699,93414981,1354752544.048489,-9340,11672,7492,nan,0.000000
2,3,6,0,4398524,76647744,93417602,1354752544.050111,-9360,11716,7484,nan,0.000000
2,3,6,0,4398524,76647744,93420223,1354752544.050111,-9404,11684,7576,nan,0.000000
2,3,6,0,4398524,76647744,93422844,1354752544.050111,-9344,11568,7404,nan,0.000000
2,3,6,0,4398524,76647744,93425465,1354752544.050111,-9124,11744,7256,nan,0.000000
2,3,6,0,4398524,76647744,93428086,1354752544.050111,-9268,11692,7716,nan,0.000000
2,3,7,0,4398524,76647790,93430707,1354752544.052106,-9340,11568,7632,nan,0.000000
2,3,7,0,4398524,76647790,93433328,1354752544.052106,-9128,11768,7452,nan,0.000000
2,3,7,0,4398524,76647790,93435949,1354752544.052106,-9216,11768,7328,nan,0.000000
2,3,7,0,4398524,76647790,93438570,1354752544.052106,-9364,11744,7496,nan,0.000000
2,3,7,0,4398524,76647790,93441191,1354752544.052106,-9372,11696,7604,nan,0.000000
2,3,8,0,4398524,76647836,93443812,1354752544.054098,-9308,11628,7496,nan,0.000000
2,3,8,0,4398524,76647836,93446433,1354752544.054098,-9268,11696,7484,nan,0.000000
2,3,8,0,4398524,76647836,93449054,1354752544.054098,-9240,11768,7472,nan,0.000000
2,3,8,0,4398524,76647836,93451675,1354752544.054098,-9220,11740,7464,nan,0.000000
2,3,8,0,4398524,76647836,93454296,1354752544.054098,-9156,11728,7500,nan,0.000000
2,3,9,0,4398524,76647882,93456917,1354752544.054478,-9220,11684,7592,nan,0.000000
2,3,9,0,4398524,76647882,93459538,1354752544.054478,-9272,11712,7584,nan,0.000000
2,3,9,0,4398524,76647882,93462159,1354752544.054478,-9236,11732,7468,nan,0.000000
2,3,9,0,4398524,76647882,93464780,1354752544.054478,-9280,11664,7460,nan,0.000000
2,3,9,0,4398524,76647882,93467401,1354752544.054478,-9252,11688,7484,nan,0.000000
2,3,10,0,4398524,76647927,93470022,1354752544.742116,-9220,11692,7568,nan,0.000000
2,3,10,0,4398524,76647927,93472643,1354752544.742116,-9232,11672,7628,nan,0.000000
2,3,10,0,4398524,76647927,93475264,1354752544.742116,-9268,11664,7572,nan,0.000000
2,3,10,0,4398524,76647927,93477885,1354752544.742116,-9316,11732,7432,nan,0.000000
2,3,10,0,4398524,76647927,93480506,1354752544.742116,-9256,11724,7420,nan,0.000000
1,3,11,0,4421338,76670468,93422068,1354752544.744080,-9252,11736,7500,nan,0.000000
1,3,11,0,4421338,76670468,93424689,1354752544.744080,-9208,11684,7500,nan,0.000000
2,3,12,0,4421338,76670513,93427310,1354752544.746081,-9208,11720,7512,nan,0.000000
2,3,12,0,4421338,76670513,93429931,1354752544.746081,-9208,11736,7548,nan,0.000000
2,3,12,0,4421338,76670513,93432552,1354752544.746081,-9236,11780,7536,nan,0.000000
2,3,12,0,4421338,76670513,93435173,1354752544.746081,-9244,11740,7528,nan,0.000000
2,3,12,0,4421338,76670513,93437794,1354752544.746081,-9332,11680,7484,nan,0.000000
2,3,13,0,4421338,76670559,93440415,1354752544.746593,-9192,11776,7248,nan,0.000000
2,3,13,0,4421338,76670559,93443036,1354752544.746593,-9284,11760,7552,nan,0.000000
2,3,13,0,4421338,76670559,93445657,1354752544.746593,-9288,11604,7680,nan,0.000000
2,3,13,0,4421338,76670559,93448278,1354752544.746593,-9120,11808,7400,nan,0.000000
2,3,13,0,4421338,76670559,93450899,1354752544.746593,-9092,11876,7304,nan,0.000000
2,3,14,0,4421338,76670605,93453520,1354752544.748056,-9280,11788,7520,nan,0.000000
2,3,14,0,4421338,76670605,93456141,1354752544.748056,-9272,11780,7636,nan,0.000000
2,3,14,0,4421338,76670605,93458762,1354752544.748056,-9236,11704,7468,nan,0.000000
2,3,14,0,4421338,76670605,93461383,1354752544.748056,-9268,11756,7404,nan,0.000000
2,3,14,0,4421338,76670605,93464004,1354752544.748056,-9272,11760,7496,nan,0.000000
2,3,15,0,4421338,76670651,93466625,1354752544.750074,-9228,11748,7480,nan,0.000000
2,3,15,0,4421338,76670651,93469246,1354752544.750074,-9188,11788,7420,nan,0.000000
2,3,15,0,4421338,76670651,93471867,1354752544.750074,-9160,11864,7432,nan,0.000000
2,3,15,0,4421338,76670651,93474488,1354752544.750074,-9204,11728,7532,nan,0.000000
2,3,15,0,4421338,76670651,93477109,1354752544.750074,-9208,11756,7588,nan,0.000000
2,3,0,0,4421338,76670696,93479730,1354752544.750486,-9200,11728,7472,nan,0.000000
2,3,0,0,4421338,76670696,93482351,1354752544.750486,-9220,11744,7428,nan,0.000000
2,3,0,0,4421338,76670696,93484972,1354752544.750486,-9220,11772,7528,nan,0.000000
2,3,0,0,4421338,76670696,93487593,1354752544.750486,-9308,11768,7528,nan,0.000000
2,3,0,0,4421338,76670696,93490214,1354752544.750486,-9336,11724,7560,nan,0.000000
2,3,1,0,4421338,76670742,93492835,1354752545.438322,-9268,11736,7496,nan,0.000000
2,3,1,0,4421338,76670742,93495456,1354752545.438322,-9176,11756,7500,nan,0.000000
2,3,1,0,4421338,76670742,93498077,1354752545.438322,-9208,11744,7480,nan,0.000000
2,3,1,0,4421338,76670742,93500698,1354752545.438322,-9244,11760,7476,nan,0.000000
2,3,1,0,4421338,76670742,93503319,1354752545.438322,-9300,11732,7520,nan,0.000000
1,3,2,0,4444151,76693280,93444882,1354752545.440090,-9204,11720,7500,nan,0.000000
1,3,2,0,4444151,76693280,93447503,1354752545.440090,-9244,11716,7496,nan,0.000000
2,3,3,0,4444151,76693326,93450124,1354752545.442095,-9208,11764,7468,nan,0.000000
2,3,3,0,4444151,76693326,93452745,1354752545.442095,-9200,11784,7512,nan,0.000000
2,3,3,0,4444151,76693326,93455366,1354752545.442095,-9244,11696,7436,nan,0.000000
2,3,3,0,4444151,76693326,93457987,1354752545.442095,-9132,11820,7256,nan,0.000000
2,3,3,0,4444151,76693326,93460608,1354752545.442095,-9360,11824,7700,nan,0.000000
2,3,4,0,4444151,76693371,93463229,1354752545.442708,-9348,11620,7628,nan,0.000000
2,3,4,0,4444151,76693371,93465850,1354752545.442708,-9140,11832,7328,nan,0.000000
2,3,4,0,4444151,76693371,93468471,1354752545.442708,-9176,11856,7364,nan,0.000000
2,3,4,0,4444151,76693371,93471092,1354752545.442708,-9364,11776,7712,nan,0.000000
2,3,4,0,4444151,76693371,93473713,1354752545.442708,-9168,11756,7536,nan,0.000000
2,3,5,0,4444151,76693417,93476334,1354752545.444065,-9088,11760,7524,nan,0.000000
2,3,5,0,4444151,76693417,93478955,1354752545.444065,-9192,11792,7524,nan,0.000000
2,3,5,0,4444151,76693417,93481576,1354752545.444065,-9304,11760,7552,nan,0.000000
2,3,5,0,4444151,76693417,93484197,1354752545.444065,-9272,11712,7436,nan,0.000000
2,3,5,0,4444151,76693417,93486818,1354752545.444065,-9228,11752,7396,nan,0.000000
2,3,6,0,4444151,76693463,93489439,1354752545.446066,-9224,11692,7488,nan,0.000000
2,3,6,0,4444151,76693463,93492060,1354752545.446066,-9176,11740,7612,nan,0.000000
2,3,6,0,4444151,76693463,93494681,1354752545.446066,-9228,11756,7484,nan,0.000000
2,3,6,0,4444151,76693463,93497302,1354752545.446066,-9224,11776,7500,nan,0.000000
2,3,6,0,4444151,76693463,93499923,1354752545.446066,-9188,11692,7488,nan,0.000000
2,3,7,0,4444151,76693513,93502544,1354752545.448076,-9216,11768,7576,nan,0.000000
2,3,7,0,4444151,76693513,93505165,1354752545.448076,-9244,11736,7628,nan,0.000000
2,3,7,0,4444151,76693513,93507786,1354752545.448076,-9204,11776,7576,nan,0.000000
2,3,7,0,4444151,76693513,93510407,1354752545.448076,-9236,11764,7504,nan,0.000000
2,3,7,0,4444151,76693513,93513028,1354752545.448076,-9164,11756,7436,nan,0.000000
2,3,8,0,4444151,76693559,93515649,1354752546.134278,-9216,11772,7512,nan,0.000000
2,3,8,0,4444151,76693559,93518270,1354752546.134278,-9236,11728,7564,nan,0.000000
2,3,8,0,4444151,76693559,93520891,1354752546.134278,-9260,11712,7504,nan,0.000000
2,3,8,0,4444151,76693559,93523512,1354752546.134278,-9296,11728,7536,nan,0.000000
2,3,8,0,4444151,76693559,93526133,1354752546.134278,-9232,11756,7512,nan,0.000000
1,3,9,0,4466964,76716095,93467695,1354752546.136100,-9156,11740,7464,nan,0.000000
1,3,9,0,4466964,76716095,93470316,1354752546.136100,-9148,11844,7484,nan,0.000000
2,3,10,0,4466964,76716141,93472937,1354752546.138082,-9244,11784,7624,nan,0.000000
2,3,10,0,4466964,76716141,93475558,1354752546.138082,-9144,11684,7476,nan,0.000000
2,3,10,0,4466964,76716141,93478179,1354752546.138082,-8984,11948,7308,nan,0.000000
2,3,10,0,4466964,76716141,93480800,1354752546.138082,-9232,11764,7784,nan,0.000000
2,3,10,0,4466964,76716141,93483421,1354752546.138082,-9224,11672,7616,nan,0.000000
2,3,11,0,4466964,76716187,93486042,1354752546.140080,-9100,11820,7208,nan,0.000000
2,3,11,0,4466964,76716187,93488663,1354752546.140080,-9184,11876,7376,nan,0.000000
2,3,11,0,4466964,76716187,93491284,1354752546.140080,-9316,11760,7616,nan,0.000000
2,3,11,0,4466964,76716187,93493905,1354752546.140080,-9252,11744,7600,nan,0.000000
2,3,11,0,4466964,76716187,93496526,1354752546.140080,-9152,11684,7460,nan,0.000000
2,3,12,0,4466964,76716232,93499147,1354752546.141099,-9204,11768,7436,nan,0.000000
2,3,12,0,4466964,76716232,93501768,1354752546.141099,-9180,11808,7480,nan,0.000000
2,3,12,0,4466964,76716232,93504389,1354752546.141099,-9172,11772,7452,nan,0.000000
2,3,12,0,4466964,76716232,93507010,1354752546.141099,-9228,11760,7496,nan,0.000000
2,3,12,0,4466964,76716232,93509631,1354752546.141099,-9260,11704,7588,nan,0.000000
2,3,13,0,4466964,76716278,93512252,1354752546.142038,-9192,11748,7556,nan,0.000000
2,3,13,0,4466964,76716278,93514873,1354752546.142038,-9176,11752,7412,nan,0.000000
2,3,13,0,4466964,76716278,93517494,1354752546.142038,-9156,11804,7444,nan,0.000000
2,3,13,0,4466964,76716278,93520115,1354752546.142038,-9232,11792,7488,nan,0.000000
2,3,13,0,4466964,76716278,93522736,1354752546.142038,-9224,11768,7564,nan,0.000000
2,3,14,0,4466964,76716324,93525357,1354752546.144089,-9204,11772,7544,nan,0.000000
2,3,14,0,4466964,76716324,93527978,1354752546.144089,-9248,11768,7556,nan,0.000000
2,3,14,0,4466964,76716324,93530599,1354752546.144089,-9140,11820,7568,nan,0.000000
2,3,14,0,4466964,76716324,93533220,1354752546.144089,-9108,11768,7532,nan,0.000000
2,3,14,0,4466964,76716324,93535841,1354752546.144089,-9168,11756,7468,nan,0.000000
2,3,15,0,4466964,76716370,93538462,1354752546.868340,-9192,11760,7532,nan,0.000000
2,3,15,0,4466964,76716370,93541083,1354752546.868340,-9216,11720,7484,nan,0.000000
2,3,15,0,4466964,76716370,93543704,1354752546.868340,-9208,11752,7504,nan,0.000000
2,3,15,0,4466964,76716370,93546325,1354752546.868340,-9208,11760,7528,nan,0.000000
2,3,15,0,4466964,76716370,93548946,1354752546.868340,-9248,11724,7576,nan,0.000000
1,3,0,0,4489777,76740094,93490508,1354752546.869114,-9240,11824,7628,nan,0.000000
1,3,0,0,4489777,76740094,93493129,1354752546.869114,-9220,11760,7604,nan,0.000000
2,3,1,0,4489777,76740139,93495750,1354752546.869998,-9116,11768,7364,nan,0.000000
2,3,1,0,4489777,76740139,93498371,1354752546.869998,-9164,11956,7528,nan,0.000000
2,3,1,0,4489777,76740139,93500992,1354752546.869998,-9400,11824,7852,nan,0.000000
2,3,1,0,4489777,76740139,93503613,1354752546.869998,-9188,11900,7648,nan,0.000000
2,3,1,0,4489777,76740139,93506234,1354752546.869998,-9084,12124,7440,nan,0.000000
2,3,2,0,4489777,76740186,93508855,1354752546.872077,-9300,12116,7508,nan,0.000000
2,3,2,0,4489777,76740186,93511476,1354752546.872077,-9364,12128,7700,nan,0.000000
2,3,2,0,4489777,76740186,93514097,1354752546.872077,-9240,12132,7632,nan,0.000000
2,3,2,0,4489777,76740186,93516718,1354752546.872077,-9136,12228,7496,nan,0.000000
2,3,2,0,4489777,76740186,93519339,1354752546.872077,-9112,12404,7520,nan,0.000000
2,3,3,0,4489777,76740231,93521960,1354752546.872750,-9056,12532,7516,nan,0.000000
2,3,3,0,4489777,76740231,93524581,1354752546.872750,-8956,12652,7392,nan,0.000000
2,3,3,0,4489777,76740231,93527202,1354752546.872750,-8912,12672,7384,nan,0.000000
2,3,3,0,4489777,76740231,93529823,1354752546.872750,-8940,12740,7348,nan,0.000000
2,3,3,0,4489777,76740231,93532444,1354752546.872750,-8936,13000,7228,nan,0.000000
2,3,4,0,4489777,76740277,93535065,1354752546.874048,-8836,13164,7112,nan,0.000000
2,3,4,0,4489777,76740277,93537686,1354752546.874048,-8744,13344,7012,nan,0.000000
2,3,4,0,4489777,76740277,93540307,1354752546.874048,-8756,13484,6928,nan,0.000000
2,3,4,0,4489777,76740277,93542928,1354752546.874048,-8696,13516,6704,nan,0.000000
2,3,4,0,4489777,76740277,93545549,1354752546.874048,-8556,13620,6564,nan,0.000000
2,3,5,0,4489777,76740323,93548170,1354752546.876069,-8344,13780,6476,nan,0.000000
2,3,5,0,4489777,76740323,93550791,1354752546.876069,-8172,13940,6288,nan,0.000000
2,3,5,0,4489777,76740323,93553412,1354752546.876069,-7968,14064,6128,nan,0.000000
2,3,5,0,4489777,76740323,93556033,1354752546.876069,-7756,14068,6012,nan,0.000000
2,3,5,0,4489777,76740323,93558654,1354752546.876069,-7720,14200,5900,nan,0.000000
2,3,6,0,4489777,76740369,93561275,1354752547.528125,-7524,14216,5748,nan,0.000000
2,3,6,0,4489777,76740369,93563896,1354752547.528125,-7392,14348,5584,nan,0.000000
2,3,6,0,4489777,76740369,93566517,1354752547.528125,-7096,14476,5352,nan,0.000000
2,3,6,0,4489777,76740369,93569138,1354752547.528125,-6824,14612,5188,nan,0.000000
2,3,6,0,4489777,76740369,93571759,1354752547.528125,-6536,14864,5064,nan,0.000000
1,3,7,0,4512590,76761725,93513321,1354752547.529210,-6264,14608,4480,nan,0.000000
1,3,7,0,4512590,76761725,93515942,1354752547.529210,-5792,14960,4088,nan,0.000000
2,3,8,0,4512590,76761770,93518563,1354752547.530256,-5640,15044,4404,nan,0.000000
2,3,8,0,4512590,76761770,93521184,1354752547.530256,-5420,15212,4164,nan,0.000000
2,3,8,0,4512590,76761770,93523805,1354752547.530256,-5128,15488,3576,nan,0.000000
2,3,8,0,4512590,76761770,93526426,1354752547.530256,-4732,15276,3132,nan,0.000000
2,3,8,0,4512590,76761770,93529047,1354752547.530256,-4544,15536,3064,nan,0.000000
2,3,9,0,4512590,76761816,93531668,1354752547.534486,-4240,15748,3012,nan,0.000000
2,3,9,0,4512590,76761816,93534289,1354752547.534486,-3820,15820,2588,nan,0.000000
2,3,9,0,4512590,76761816,93536910,1354752547.534486,-3380,15712,2212,nan,0.000000
2,3,9,0,4512590,76761816,93539531,1354752547.534486,-3244,15860,2024,nan,0.000000
2,3,9,0,4512590,76761816,93542152,1354752547.534486,-3268,16052,2048,nan,0.000000
2,3,10,0,4512590,76761862,93544773,1354752547.536302,-2940,16128,1756,nan,0.000000
2,3,10,0,4512590,76761862,93547394,1354752547.536302,-2672,16124,1724,nan,0.000000
2,3,10,0,4512590,76761862,93550015,1354752547.536302,-2616,16212,1616,nan,0.000000
2,3,10,0,4512590,76761862,93552636,1354752547.536302,-2592,16388,1348,nan,0.000000
2,3,10,0,4512590,76761862,93555257,1354752547.536302,-2464,16312,1160,nan,0.000000
2,3,11,0,4512590,76761908,93557878,1354752547.538093,-2332,16200,884,nan,0.000000
2,3,11,0,4512590,76761908,93560499,1354752547.538093,-1996,16108,456,nan,0.000000
2,3,11,0,4512590,76761908,93563120,1354752547.538093,-1596,16180,268,nan,0.000000
2,3,11,0,4512590,76761908,93565741,1354752547.538093,-1404,16432,132,nan,0.000000
2,3,11,0,4512590,76761908,93568362,1354752547.538093,-1548,16436,-12,nan,0.000000
2,3,12,0,4512590,76761953,93570983,1354752547.541689,-1488,16476,76,nan,0.000000
2,3,12,0,4512590,76761953,93573604,1354752547.541689,-1292,16424,-48,nan,0.000000
2,3,12,0,4512590,76761953,93576225,1354752547.541689,-1212,16392,-152,nan,0.000000
2,3,12,0,4512590,76761953,93578846,1354752547.541689,-1168,16584,-212,nan,0.000000
2,3,12,0,4512590,76761953,93581467,1354752547.541689,-720,16656,-488,nan,0.000000
2,3,13,0,4512590,76761999,93584088,1354752548.224025,-288,16712,-836,nan,0.000000
2,3,13,0,4512590,76761999,93586709,1354752548.224025,28,16908,-844,nan,0.000000
2,3,13,0,4512590,76761999,93589330,1354752548.224025,204,16896,-772,nan,0.000000
2,3,13,0,4512590,76761999,93591951,1354752548.224025,84,16836,-1188,nan,0.000000
2,3,13,0,4512590,76761999,93594572,1354752548.224025,-24,16880,-1400,nan,0.000000
1,3,14,0,4535403,76784540,93536134,1354752548.226035,-108,16636,-1400,nan,0.000000
1,3,14,0,4535403,76784540,93538755,1354752548.226035,164,16932,-1604,nan,0.000000
2,3,15,0,4535403,76784585,93541376,1354752548.226445,36,16760,-1584,nan,0.000000
2,3,15,0,4535403,76784585,93543997,1354752548.226445,-88,16656,-1480,nan,0.000000
2,3,15,0,4535403,76784585,93546618,1354752548.226445,-24,16580,-1372,nan,0.000000
2,3,15,0,4535403,76784585,93549239,1354752548.226445,40,16640,-1444,nan,0.000000
2,3,15,0,4535403,76784585,93551860,1354752548.226445,-72,16584,-1384,nan,0.000000
2,3,0,0,4535403,76784631,93554481,1354752548.228078,-152,16612,-1428,nan,0.000000
2,3,0,0,4535403,76784631,93557102,1354752548.228078,-164,16636,-1540,nan,0.000000
2,3,0,0,4535403,76784631,93559723,1354752548.228078,-76,16748,-1492,nan,0.000000
2,3,0,0,4535403,76784631,93562344,1354752548.228078,20,16704,-1612,nan,0.000000
2,3,0,0,4535403,76784631,93564965,1354752548.228078,56,16776,-1616,nan,0.000000
2,3,1,0,4535403,76784677,93567586,1354752548.230014,96,16788,-1748,nan,0.000000
2,3,1,0,4535403,76784677,93570207,1354752548.230014,232,16812,-1848,nan,0.000000
2,3,1,0,4535403,76784677,93572828,1354752548.230014,264,16724,-1864,nan,0.000000
2,3,1,0,4535403,76784677,93575449,1354752548.230014,216,16708,-1884,nan,0.000000
2,3,1,0,4535403,76784677,93578070,1354752548.230014,308,16664,-1988,nan,0.000000
2,3,2,0,4535403,76784723,93580691,1354752548.230603,412,16528,-1864,nan,0.000000
2,3,2,0,4535403,76784723,93583312,1354752548.230603,464,16624,-1900,nan,0.000000
2,3,2,0,4535403,76784723,93585933,1354752548.230603,412,16732,-1900,nan,0.000000
2,3,2,0,4535403,76784723,93588554,1354752548.230603,404,16784,-1880,nan,0.000000
2,3,2,0,4535403,76784723,93591175,1354752548.230603,460,16840,-2008,nan,0.000000
2,3,3,0,4535403,76784768,93593796,1354752548.232050,536,16720,-1900,nan,0.000000
2,3,3,0,4535403,76784768,93596417,1354752548.232050,620,16676,-1824,nan,0.000000
2,3,3,0,4535403,76784768,93599038,1354752548.232050,524,16668,-1844,nan,0.000000
2,3,3,0,4535403,76784768,93601659,1354752548.232050,492,16600,-1932,nan,0.000000
2,3,3,0,4535403,76784768,93604280,1354752548.232050,536,16616,-2232,nan,0.000000
2,3,4,0,4535403,76784814,93606901,1354752548.920231,624,16792,-2112,nan,0.000000
2,3,4,0,4535403,76784814,93609522,1354752548.920231,580,16680,-1640,nan,0.000000
2,3,4,0,4535403,76784814,93612143,1354752548.920231,592,16676,-1656,nan,0.000000
2,3,4,0,4535403,76784814,93614764,1354752548.920231,836,16748,-2016,nan,0.000000
2,3,4,0,4535403,76784814,93617385,1354752548.920231,772,16604,-1924,nan,0.000000
1,3,5,0,4558216,76807350,93558947,1354752548.922009,652,16696,-1700,nan,0.000000
1,3,5,0,4558216,76807350,93561568,1354752548.922009,732,16800,-1848,nan,0.000000
2,3,6,0,4558216,76807395,93564189,1354752548.922463,768,16776,-1956,nan,0.000000
2,3,6,0,4558216,76807395,93566810,1354752548.922463,776,16664,-2008,nan,0.000000
2,3,6,0,4558216,76807395,93569431,1354752548.922463,828,16640,-1904,nan,0.000000
2,3,6,0,4558216,76807395,93572052,1354752548.922463,740,16596,-1692,nan,0.000000
2,3,6,0,4558216,76807395,93574673,1354752548.922463,728,16616,-1680,nan,0.000000
2,3,7,0,4558216,76807441,93577294,1354752548.924007,848,16736,-1660,nan,0.000000
2,3,7,0,4558216,76807441,93579915,1354752548.924007,820,16712,-1656,nan,0.000000
2,3,7,0,4558216,76807441,93582536,1354752548.924007,880,16636,-1796,nan,0.000000
2,3,7,0,4558216,76807441,93585157,1354752548.924007,940,16640,-1760,nan,0.000000
2,3,7,0,4558216,76807441,93587778,1354752548.924007,952,16704,-1632,nan,0.000000
2,3,8,0,4558216,76807487,93590399,1354752548.926042,892,16696,-1680,nan,0.000000
2,3,8,0,4558216,76807487,93593020,1354752548.926042,820,16692,-1684,nan,0.000000
2,3,8,0,4558216,76807487,93595641,1354752548.926042,872,16724,-1796,nan,0.000000
2,3,8,0,4558216,76807487,93598262,1354752548.926042,960,16708,-1768,nan,0.000000
2,3,8,0,4558216,76807487,93600883,1354752548.926042,972,16684,-1712,nan,0.000000
2,3,9,0,4558216,76807533,93603504,1354752548.927010,960,16636,-1552,nan,0.000000
2,3,9,0,4558216,76807533,93606125,1354752548.927010,904,16716,-1656,nan,0.000000
2,3,9,0,4558216,76807533,93608746,1354752548.927010,872,16736,-1608,nan,0.000000
2,3,9,0,4558216,76807533,93611367,1354752548.927010,1024,16648,-1848,nan,0.000000
2,3,9,0,4558216,76807533,93613988,1354752548.927010,1048,16712,-1832,nan,0.000000
2,3,10,0,4558216,76807578,93616609,1354752548.927963,824,16584,-1476,nan,0.000000
2,3,10,0,4558216,76807578,93619230,1354752548.927963,872,16644,-1704,nan,0.000000
2,3,10,0,4558216,76807578,93621851,1354752548.927963,1132,16856,-1880,nan,0.000000
2,3,10,0,4558216,76807578,93624472,1354752548.927963,1020,16668,-1920,nan,0.000000
2,3,10,0,4558216,76807578,93627093,1354752548.927963,928,16612,-1948,nan,0.000000
2,3,11,0,4558216,76807624,93629714,1354752549.616093,1020,16688,-1844,nan,0.000000
2,3,11,0,4558216,76807624,93632335,1354752549.616093,980,16672,-1964,nan,0.000000
2,3,11,0,4558216,76807624,93634956,1354752549.616093,1000,16608,-1956,nan,0.000000
2,3,11,0,4558216,76807624,93637577,1354752549.616093,940,16600,-1828,nan,0.000000
2,3,11,0,4558216,76807624,93640198,1354752549.616093,984,16656,-1884,nan,0.000000
1,3,12,0,4581030,76830164,93581760,1354752549.617999,896,16640,-1708,nan,0.000000
1,3,12,0,4581030,76830164,93584381,1354752549.617999,1028,16724,-1772,nan,0.000000
2,3,13,0,4581030,76830210,93587002,1354752549.618491,1000,16688,-1884,nan,0.000000
2,3,13,0,4581030,76830210,93589623,1354752549.618491,992,16604,-1876,nan,0.000000
2,3,13,0,4581030,76830210,93592244,1354752549.618491,976,16564,-1888,nan,0.000000
2,3,13,0,4581030,76830210,93594865,1354752549.618491,952,16592,-1904,nan,0.000000
2,3,13,0,4581030,76830210,93597486,1354752549.618491,988,16604,-1860,nan,0.000000
2,3,14,0,4581030,76830255,93600107,1354752549.619987,856,16696,-1768,nan,0.000000
2,3,14,0,4581030,76830255,93602728,1354752549.619987,856,16720,-1860,nan,0.000000
2,3,14,0,4581030,76830255,93605349,1354752549.619987,948,16756,-2004,nan,0.000000
2,3,14,0,4581030,76830255,93607970,1354752549.619987,1068,16752,-1884,nan,0.000000
2,3,14,0,4581030,76830255,93610591,1354752549.619987,1064,16620,-1820,nan,0.000000
2,3,15,0,4581030,76830301,93613212,1354752549.622316,992,16648,-1752,nan,0.000000
2,3,15,0,4581030,76830301,93615833,1354752549.622316,856,16548,-1700,nan,0.000000
2,3,15,0,4581030,76830301,93618454,1354752549.622316,876,16632,-2140,nan,0.000000
2,3,15,0,4581030,76830301,93621075,1354752549.622316,884,16832,-2116,nan,0.000000
2,3,15,0,4581030,76830301,93623696,1354752549.622316,932,16732,-1640,nan,0.000000
2,3,0,0,4581030,76830347,93626317,1354752549.623986,880,16728,-1772,nan,0.000000
2,3,0,0,4581030,76830347,93628938,1354752549.623986,864,16668,-2124,nan,0.000000
2,3,0,0,4581030,76830347,93631559,1354752549.623986,740,16516,-2280,nan,0.000000
2,3,0,0,4581030,76830347,93634180,1354752549.623986,740,16608,-2024,nan,0.000000
2,3,0,0,4581030,76830347,93636801,1354752549.623986,816,16660,-1852,nan,0.000000
2,3,1,0,4581030,76830393,93639422,1354752549.624995,920,16664,-1908,nan,0.000000
2,3,1,0,4581030,76830393,93642043,1354752549.624995,940,16700,-2000,nan,0.000000
2,3,1,0,4581030,76830393,93644664,1354752549.624995,844,16636,-2144,nan,0.000000
2,3,1,0,4581030,76830393,93647285,1354752549.624995,780,16652,-2132,nan,0.000000
2,3,1,0,4581030,76830393,93649906,1354752549.624995,776,16612,-1968,nan,0.000000
2,3,2,0,4581030,76830438,93652527,1354752550.312192,768,16676,-1916,nan,0.000000
2,3,2,0,4581030,76830438,93655148,1354752550.312192,776,16780,-1956,nan,0.000000
2,3,2,0,4581030,76830438,93657769,1354752550.312192,696,16760,-2004,nan,0.000000
2,3,2,0,4581030,76830438,93660390,1354752550.312192,680,16732,-2068,nan,0.000000
2,3,2,0,4581030,76830438,93663011,1354752550.312192,680,16712,-2012,nan,0.000000
1,3,3,0,4603842,76852978,93604574,1354752550.313953,644,16680,-1916,nan,0.000000
1,3,3,0,4603842,76852978,93607195,1354752550.313953,632,16604,-1924,nan,0.000000
2,3,4,0,4603842,76853024,93609816,1354752550.315998,620,16632,-1992,nan,0.000000
2,3,4,0,4603842,76853024,93612437,1354752550.315998,600,16748,-1992,nan,0.000000
2,3,4,0,4603842,76853024,93615058,1354752550.315998,516,16692,-1756,nan,0.000000
2,3,4,0,4603842,76853024,93617679,1354752550.315998,568,16728,-1764,nan,0.000000
2,3,4,0,4603842,76853024,93620300,1354752550.315998,540,16700,-1580,nan,0.000000
2,3,5,0,4603842,76853069,93622921,1354752550.316600,464,16632,-1944,nan,0.000000
2,3,5,0,4603842,76853069,93625542,1354752550.316600,484,16860,-1976,nan,0.000000
2,3,5,0,4603842,76853069,93628163,1354752550.316600,352,16636,-1460,nan,0.000000
2,3,5,0,4603842,76853069,93630784,1354752550.316600,388,16632,-1648,nan,0.000000
2,3,5,0,4603842,76853069,93633405,1354752550.316600,564,16784,-1916,nan,0.000000
2,3,6,0,4603842,76853115,93636026,1354752550.317953,560,16736,-1892,nan,0.000000
2,3,6,0,4603842,76853115,93638647,1354752550.317953,308,16712,-1644,nan,0.000000
2,3,6,0,4603842,76853115,93641268,1354752550.317953,352,16748,-1552,nan,0.000000
2,3,6,0,4603842,76853115,93643889,1354752550.317953,348,16764,-1728,nan,0.000000
2,3,6,0,4603842,76853115,93646510,1354752550.317953,364,16772,-1684,nan,0.000000
2,3,7,0,4603842,76853161,93649131,1354752550.319969,316,16752,-1716,nan,0.000000
2,3,7,0,4603842,76853161,93651752,1354752550.319969,312,16740,-1640,nan,0.000000
2,3,7,0,4603842,76853161,93654373,1354752550.319969,364,16648,-1500,nan,0.000000
2,3,7,0,4603842,76853161,93656994,1354752550.319969,264,16672,-1560,nan,0.000000
2,3,7,0,4603842,76853161,93659615,1354752550.319969,284,16808,-1612,nan,0.000000
2,3,8,0,4603842,76853207,93662236,1354752550.320632,336,16820,-1604,nan,0.000000
2,3,8,0,4603842,76853207,93664857,1354752550.320632,228,16756,-1632,nan,0.000000
2,3,8,0,4603842,76853207,93667478,1354752550.320632,220,16732,-1528,nan,0.000000
2,3,8,0,4603842,76853207,93670099,1354752550.320632,312,16748,-1604,nan,0.000000
2,3,8,0,4603842,76853207,93672720,1354752550.320632,308,16776,-1628,nan,0.000000
2,3,9,0,4603842,76853252,93675341,1354752551.007993,284,16728,-1636,nan,0.000000
2,3,9,0,4603842,76853252,93677962,1354752551.007993,220,16680,-1628,nan,0.000000
2,3,9,0,4603842,76853252,93680583,1354752551.007993,168,16724,-1600,nan,0.000000
2,3,9,0,4603842,76853252,93683204,1354752551.007993,148,16740,-1600,nan,0.000000
2,3,9,0,4603842,76853252,93685825,1354752551.007993,164,16828,-1684,nan,0.000000
1,3,10,0,4626655,76875793,93627386,1354752551.010056,200,16636,-1708,nan,0.000000
1,3,10,0,4626655,76875793,93630007,1354752551.010056,212,16756,-1824,nan,0.000000
2,3,11,0,4626655,76875839,93632628,1354752551.011905,132,16620,-1368,nan,0.000000
2,3,11,0,4626655,76875839,93635249,1354752551.011905,96,16612,-1676,nan,0.000000
2,3,11,0,4626655,76875839,93637870,1354752551.011905,292,16868,-1792,nan,0.000000
2,3,11,0,4626655,76875839,93640491,1354752551.011905,176,16708,-1780,nan,0.000000
2,3,11,0,4626655,76875839,93643112,1354752551.011905,48,16636,-1620,nan,0.000000
2,3,12,0,4626655,76875885,93645733,1354752551.012497,172,16708,-1624,nan,0.000000
2,3,12,0,4626655,76875885,93648354,1354752551.012497,200,16804,-1624,nan,0.000000
2,3,12,0,4626655,76875885,93650975,1354752551.012497,152,16748,-1688,nan,0.000000
2,3,12,0,4626655,76875885,93653596,1354752551.012497,100,16664,-1832,nan,0.000000
2,3,12,0,4626655,76875885,93656217,1354752551.012497,104,16736,-1760,nan,0.000000
2,3,13,0,4626655,76875930,93658838,1354752551.013904,148,16680,-1624,nan,0.000000
2,3,13,0,4626655,76875930,93661459,1354752551.013904,100,16724,-1664,nan,0.000000
2,3,13,0,4626655,76875930,93664080,1354752551.013904,132,16780,-1680,nan,0.000000
2,3,13,0,4626655,76875930,93666701,1354752551.013904,108,16736,-1720,nan,0.000000
2,3,13,0,4626655,76875930,93669322,1354752551.013904,60,16728,-1632,nan,0.000000
2,3,14,0,4626655,76875977,93671943,1354752551.015923,12,16708,-1660,nan,0.000000
2,3,14,0,4626655,76875977,93674564,1354752551.015923,40,16764,-1692,nan,0.000000
2,3,14,0,4626655,76875977,93677185,1354752551.015923,72,16792,-1604,nan,0.000000
2,3,14,0,4626655,76875977,93679806,1354752551.015923,92,16732,-1616,nan,0.000000
2,3,14,0,4626655,76875977,93682427,1354752551.015923,88,16720,-1700,nan,0.000000
2,3,15,0,4626655,76876022,93685048,1354752551.017932,144,16772,-1632,nan,0.000000
2,3,15,0,4626655,76876022,93687669,1354752551.017932,80,16768,-1588,nan,0.000000
2,3,15,0,4626655,76876022,93690290,1354752551.017932,84,16752,-1688,nan,0.000000
2,3,15,0,4626655,76876022,93692911,1354752551.017932,16,16840,-1564,nan,0.000000
2,3,15,0,4626655,76876022,93695532,1354752551.017932,20,16668,-1632,nan,0.000000
2,3,0,0,4626655,76876068,93698153,1354752551.704194,148,16780,-1780,nan,0.000000
2,3,0,0,4626655,76876068,93700774,1354752551.704194,-60,16844,-1292,nan,0.000000
2,3,0,0,4626655,76876068,93703395,1354752551.704194,-116,16600,-1368,nan,0.000000
2,3,0,0,4626655,76876068,93706016,1354752551.704194,164,16828,-1708,nan,0.000000
2,3,0,0,4626655,76876068,93708637,1354752551.704194,144,16760,-1676,nan,0.000000
1,3,1,0,4649469,76898606,93650199,1354752551.706474,16,16760,-1528,nan,0.000000
1,3,1,0,4649469,76898606,93652820,1354752551.706474,40,16724,-1480,nan,0.000000
2,3,2,0,4649469,76898651,93655441,1354752551.708049,-24,16660,-1504,nan,0.000000
2,3,2,0,4649469,76898651,93658062,1354752551.708049,-32,16676,-1540,nan,0.000000
2,3,2,0,4649469,76898651,93660683,1354752551.708049,-20,16708,-1624,nan,0.000000
2,3,2,0,4649469,76898651,93663304,1354752551.708049,8,16796,-1612,nan,0.000000
2,3,2,0,4649469,76898651,93665925,1354752551.708049,72,16700,-1536,nan,0.000000
2,3,3,0,4649469,76898697,93668546,1354752551.710597,120,16712,-1652,nan,0.000000
2,3,3,0,4649469,76898697,93671167,1354752551.710597,120,16744,-1680,nan,0.000000
2,3,3,0,4649469,76898697,93673788,1354752551.710597,68,16800,-1628,nan,0.000000
2,3,3,0,4649469,76898697,93676409,1354752551.710597,-28,16692,-1588,nan,0.000000
2,3,3,0,4649469,76898697,93679030,1354752551.710597,-8,16724,-1596,nan,0.000000
2,3,4,0,4649469,76898743,93681651,1354752551.714592,-52,16684,-1580,nan,0.000000
2,3,4,0,4649469,76898743,93684272,1354752551.714592,-80,16756,-1600,nan,0.000000
2,3,4,0,4649469,76898743,93686893,1354752551.714592,-132,16668,-1612,nan,0.000000
2,3,4,0,4649469,76898743,93689514,1354752551.714592,-84,16752,-1680,nan,0.000000
2,3,4,0,4649469,76898743,93692135,1354752551.714592,36,16736,-1756,nan,0.000000
2,3,5,0,4649469,76898788,93694756,1354752551.720977,40,16784,-1680,nan,0.000000
2,3,5,0,4649469,76898788,93697377,1354752551.720977,72,16724,-1780,nan,0.000000
2,3,5,0,4649469,76898788,93699998,1354752551.720977,136,16740,-1688,nan,0.000000
2,3,5,0,4649469,76898788,93702619,1354752551.720977,124,16724,-1568,nan,0.000000
2,3,5,0,4649469,76898788,93705240,1354752551.720977,96,16736,-1860,nan,0.000000
2,3,6,0,4649469,76898835,93707861,1354752551.723559,-40,16872,-1608,nan,0.000000
2,3,6,0,4649469,76898835,93710482,1354752551.723559,-200,16556,-1340,nan,0.000000
2,3,6,0,4649469,76898835,93713103,1354752551.723559,36,16708,-1760,nan,0.000000
2,3,6,0,4649469,76898835,93715724,1354752551.723559,260,16808,-1992,nan,0.000000
2,3,6,0,4649469,76898835,93718345,1354752551.723559,72,16688,-1968,nan,0.000000
2,3,7,0,4649469,76898880,93720966,1354752552.402006,-68,16732,-1688,nan,0.000000
2,3,7,0,4649469,76898880,93723587,1354752552.402006,64,16692,-1568,nan,0.000000
2,3,7,0,4649469,76898880,93726208,1354752552.402006,236,16796,-1576,nan,0.000000
2,3,7,0,4649469,76898880,93728829,1354752552.402006,104,16764,-1716,nan,0.000000
2,3,7,0,4649469,76898880,93731450,1354752552.402006,40,16784,-1892,nan,0.000000
1,3,8,0,4672281,76921440,93673013,1354752552.403926,36,16624,-1672,nan,0.000000
1,3,8,0,4672281,76921440,93675634,1354752552.403926,72,16740,-1552,nan,0.000000
2,3,9,0,4672281,76921486,93678255,1354752552.404315,64,16716,-1580,nan,0.000000
2,3,9,0,4672281,76921486,93680876,1354752552.404315,148,16716,-1664,nan,0.000000
2,3,9,0,4672281,76921486,93683497,1354752552.404315,124,16820,-1524,nan,0.000000
2,3,9,0,4672281,76921486,93686118,1354752552.404315,88,16768,-1388,nan,0.000000
2,3,9,0,4672281,76921486,93688739,1354752552.404315,80,16728,-1440,nan,0.000000
2,3,10,0,4672281,76921532,93691360,1354752552.406063,28,16764,-1456,nan,0.000000
2,3,10,0,4672281,76921532,93693981,1354752552.406063,52,16668,-1476,nan,0.000000
2,3,10,0,4672281,76921532,93696602,1354752552.406063,20,16680,-1548,nan,0.000000
2,3,10,0,4672281,76921532,93699223,1354752552.406063,72,16728,-1532,nan,0.000000
2,3,10,0,4672281,76921532,93701844,1354752552.406063,104,16812,-1396,nan,0.000000
2,3,11,0,4672281,76921578,93704465,1354752552.407906,56,16708,-1388,nan,0.000000
2,3,11,0,4672281,76921578,93707086,1354752552.407906,-8,16804,-1396,nan,0.000000
2,3,11,0,4672281,76921578,93709707,1354752552.407906,4,16800,-1340,nan,0.000000
2,3,11,0,4672281,76921578,93712328,1354752552.407906,128,16756,-1740,nan,0.000000
2,3,11,0,4672281,76921578,93714949,1354752552.407906,80,16816,-1556,nan,0.000000
2,3,12,0,4672281,76921623,93717570,1354752552.408986,-164,16684,-992,nan,0.000000
2,3,12,0,4672281,76921623,93720191,1354752552.408986,-152,16756,-1356,nan,0.000000
2,3,12,0,4672281,76921623,93722812,1354752552.408986,84,16844,-1744,nan,0.000000
2,3,12,0,4672281,76921623,93725433,1354752552.408986,-104,16744,-1644,nan,0.000000
2,3,12,0,4672281,76921623,93728054,1354752552.408986,-248,16636,-1380,nan,0.000000
2,3,13,0,4672281,76921669,93730675,1354752552.409930,-120,16772,-1312,nan,0.000000
2,3,13,0,4672281,76921669,93733296,1354752552.409930,-68,16808,-1496,nan,0.000000
2,3,13,0,4672281,76921669,93735917,1354752552.409930,-136,16856,-1536,nan,0.000000
2,3,13,0,4672281,76921669,93738538,1354752552.409930,-204,16780,-1684,nan,0.000000
2,3,13,0,4672281,76921669,93741159,1354752552.409930,-144,16776,-1548,nan,0.000000
2,3,14,0,4672281,76921715,93743780,1354752553.098201,-152,16728,-1536,nan,0.000000
2,3,14,0,4672281,76921715,93746401,1354752553.098201,-96,16832,-1648,nan,0.000000
2,3,14,0,4672281,76921715,93749022,1354752553.098201,12,16844,-1692,nan,0.000000
2,3,14,0,4672281,76921715,93751643,1354752553.098201,-32,16760,-1688,nan,0.000000
2,3,14,0,4672281,76921715,93754264,1354752553.098201,-124,16700,-1672,nan,0.000000
1,3,15,0,4695094,76944235,93695825,1354752553.098937,-168,16700,-1712,nan,0.000000
1,3,15,0,4695094,76944235,93698446,1354752553.098937,-184,16736,-1680,nan,0.000000
2,3,0,0,4695094,76944280,93701067,1354752553.099942,-172,16752,-1720,nan,0.000000
2,3,0,0,4695094,76944280,93703688,1354752553.099942,-116,16736,-1832,nan,0.000000
2,3,0,0,4695094,76944280,93706309,1354752553.099942,-168,16752,-1848,nan,0.000000
2,3,0,0,4695094,76944280,93708930,1354752553.099942,-196,16648,-1872,nan,0.000000
2,3,0,0,4695094,76944280,93711551,1354752553.099942,-204,16740,-1920,nan,0.000000
2,3,1,0,4695094,76944326,93714172,1354752553.101899,-132,16784,-1776,nan,0.000000
2,3,1,0,4695094,76944326,93716793,1354752553.101899,-176,16620,-2092,nan,0.000000
2,3,1,0,4695094,76944326,93719414,1354752553.101899,-144,16720,-2264,nan,0.000000
2,3,1,0,4695094,76944326,93722035,1354752553.101899,-288,16560,-1792,nan,0.000000
2,3,1,0,4695094,76944326,93724656,1354752553.101899,-272,16544,-1864,nan,0.000000
2,3,2,0,4695094,76944372,93727277,1354752553.103990,-76,16716,-2372,nan,0.000000
2,3,2,0,4695094,76944372,93729898,1354752553.103990,-160,16664,-2428,nan,0.000000
2,3,2,0,4695094,76944372,93732519,1354752553.103990,-244,16572,-2256,nan,0.000000
2,3,2,0,4695094,76944372,93735140,1354752553.103990,-176,16668,-2160,nan,0.000000
2,3,2,0,4695094,76944372,93737761,1354752553.103990,-16,16668,-2228,nan,0.000000
2,3,3,0,4695094,76944418,93740382,1354752553.104905,20,16700,-2376,nan,0.000000
2,3,3,0,4695094,76944418,93743003,1354752553.104905,-88,16724,-2448,nan,0.000000
2,3,3,0,4695094,76944418,93745624,1354752553.104905,-180,16668,-2548,nan,0.000000
2,3,3,0,4695094,76944418,93748245,1354752553.104905,-260,16656,-2344,nan,0.000000
2,3,3,0,4695094,76944418,93750866,1354752553.104905,-320,16496,-2472,nan,0.000000
2,3,4,0,4695094,76944463,93753487,1354752553.105870,-168,16472,-2500,nan,0.000000
2,3,4,0,4695094,76944463,93756108,1354752553.105870,-356,16444,-2456,nan,0.000000
2,3,4,0,4695094,76944463,93758729,1354752553.105870,-436,16488,-2340,nan,0.000000
2,3,4,0,4695094,76944463,93761350,1354752553.105870,-540,16660,-2228,nan,0.000000
2,3,4,0,4695094,76944463,93763971,1354752553.105870,-640,16744,-2376,nan,0.000000
2,3,5,0,4695094,76944509,93766592,1354752553.794109,-600,16700,-2420,nan,0.000000
2,3,5,0,4695094,76944509,93769213,1354752553.794109,-500,16504,-2512,nan,0.000000
2,3,5,0,4695094,76944509,93771834,1354752553.794109,-372,16488,-2484,nan,0.000000
2,3,5,0,4695094,76944509,93774455,1354752553.794109,-312,16544,-2240,nan,0.000000
2,3,5,0,4695094,76944509,93777076,1354752553.794109,-364,16672,-2164,nan,0.000000
1,3,6,0,4717907,76967046,93718638,1354752553.795922,-532,16648,-2640,nan,0.000000
1,3,6,0,4717907,76967046,93721259,1354752553.795922,-624,16508,-2836,nan,0.000000
2,3,7,0,4717907,76967092,93723880,1354752553.796298,-472,16652,-3100,nan,0.000000
2,3,7,0,4717907,76967092,93726501,1354752553.796298,-540,16724,-2648,nan,0.000000
2,3,7,0,4717907,76967092,93729122,1354752553.796298,-548,16444,-2292,nan,0.000000
2,3,7,0,4717907,76967092,93731743,1354752553.796298,-364,16668,-2884,nan,0.000000
2,3,7,0,4717907,76967092,93734364,1354752553.796298,-476,16628,-2920,nan,0.000000
2,3,8,0,4717907,76967138,93736985,1354752553.797831,-616,16552,-2836,nan,0.000000
2,3,8,0,4717907,76967138,93739606,1354752553.797831,-536,16552,-2720,nan,0.000000
2,3,8,0,4717907,76967138,93742227,1354752553.797831,-508,16660,-2832,nan,0.000000
2,3,8,0,4717907,76967138,93744848,1354752553.797831,-448,16620,-2944,nan,0.000000
2,3,8,0,4717907,76967138,93747469,1354752553.797831,-384,16596,-3036,nan,0.000000
2,3,9,0,4717907,76967184,93750090,1354752553.799831,-428,16524,-2988,nan,0.000000
2,3,9,0,4717907,76967184,93752711,1354752553.799831,-404,16500,-2872,nan,0.000000
2,3,9,0,4717907,76967184,93755332,1354752553.799831,-396,16528,-2876,nan,0.000000
2,3,9,0,4717907,76967184,93757953,1354752553.799831,-380,16552,-2888,nan,0.000000
2,3,9,0,4717907,76967184,93760574,1354752553.799831,-500,16576,-2948,nan,0.000000
2,3,10,0,4717907,76967230,93763195,1354752553.800349,-700,16540,-3032,nan,0.000000
2,3,10,0,4717907,76967230,93765816,1354752553.800349,-664,16492,-3068,nan,0.000000
2,3,10,0,4717907,76967230,93768437,1354752553.800349,-652,16536,-2980,nan,0.000000
2,3,10,0,4717907,76967230,93771058,1354752553.800349,-720,16456,-2960,nan,0.000000
2,3,10,0,4717907,76967230,93773679,1354752553.800349,-736,16564,-3048,nan,0.000000
2,3,11,0,4717907,76967275,93776300,1354752553.802925,-880,16580,-3068,nan,0.000000
2,3,11,0,4717907,76967275,93778921,1354752553.802925,-760,16596,-3040,nan,0.000000
2,3,11,0,4717907,76967275,93781542,1354752553.802925,-780,16536,-3024,nan,0.000000
2,3,11,0,4717907,76967275,93784163,1354752553.802925,-804,16512,-2936,nan,0.000000
2,3,11,0,4717907,76967275,93786784,1354752553.802925,-784,16516,-3044,nan,0.000000
2,3,12,0,4717907,76967321,93789405,1354752554.489899,-736,16516,-2880,nan,0.000000
2,3,12,0,4717907,76967321,93792026,1354752554.489899,-744,16500,-3020,nan,0.000000
2,3,12,0,4717907,76967321,93794647,1354752554.489899,-856,16672,-3068,nan,0.000000
2,3,12,0,4717907,76967321,93797268,1354752554.489899,-1144,16556,-2588,nan,0.000000
2,3,12,0,4717907,76967321,93799889,1354752554.489899,-1204,16412,-2812,nan,0.000000
1,3,13,0,4740719,76989879,93741451,1354752554.491854,-1128,16552,-3032,nan,0.000000
1,3,13,0,4740719,76989879,93744072,1354752554.491854,-1260,16532,-2844,nan,0.000000
2,3,14,0,4740719,76989925,93746693,1354752554.493936,-1124,16444,-2800,nan,0.000000
2,3,14,0,4740719,76989925,93749314,1354752554.493936,-1032,16616,-2836,nan,0.000000
2,3,14,0,4740719,76989925,93751935,1354752554.493936,-1096,16652,-2856,nan,0.000000
2,3,14,0,4740719,76989925,93754556,1354752554.493936,-1156,16640,-2864,nan,0.000000
2,3,14,0,4740719,76989925,93757177,1354752554.493936,-1192,16568,-2908,nan,0.000000
2,3,15,0,4740719,76989971,93759798,1354752554.494674,-1180,16548,-2732,nan,0.000000
2,3,15,0,4740719,76989971,93762419,1354752554.494674,-1352,16508,-2688,nan,0.000000
2,3,15,0,4740719,76989971,93765040,1354752554.494674,-1384,16532,-2860,nan,0.000000
2,3,15,0,4740719,76989971,93767661,1354752554.494674,-1352,16548,-2872,nan,0.000000
2,3,15,0,4740719,76989971,93770282,1354752554.494674,-1468,16528,-2692,nan,0.000000
2,3,0,0,4740719,76990016,93772903,1354752554.496008,-1424,16556,-2760,nan,0.000000
2,3,0,0,4740719,76990016,93775524,1354752554.496008,-1396,16596,-2812,nan,0.000000
2,3,0,0,4740719,76990016,93778145,1354752554.496008,-1392,16592,-2812,nan,0.000000
2,3,0,0,4740719,76990016,93780766,1354752554.496008,-1316,16564,-2664,nan,0.000000
2,3,0,0,4740719,76990016,93783387,1354752554.496008,-1316,16584,-2788,nan,0.000000
2,3,1,0,4740719,76990062,93786008,1354752554.498112,-1332,16560,-2748,nan,0.000000
2,3,1,0,4740719,76990062,93788629,1354752554.498112,-1308,16548,-2764,nan,0.000000
2,3,1,0,4740719,76990062,93791250,1354752554.498112,-1328,16556,-2596,nan,0.000000
2,3,1,0,4740719,76990062,93793871,1354752554.498112,-1240,16584,-2600,nan,0.000000
2,3,1,0,4740719,76990062,93796492,1354752554.498112,-1332,16624,-2452,nan,0.000000
2,3,2,0,4740719,76990108,93799113,1354752554.498595,-1400,16444,-2624,nan,0.000000
2,3,2,0,4740719,76990108,93801734,1354752554.498595,-1388,16568,-2872,nan,0.000000
2,3,2,0,4740719,76990108,93804355,1354752554.498595,-1464,16524,-2228,nan,0.000000
2,3,2,0,4740719,76990108,93806976,1354752554.498595,-1424,16536,-2352,nan,0.000000
2,3,2,0,4740719,76990108,93809597,1354752554.498595,-1364,16688,-2804,nan,0.000000
2,3,3,0,4740719,76990154,93812218,1354752555.185901,-1556,16580,-2824,nan,0.000000
2,3,3,0,4740719,76990154,93814839,1354752555.185901,-1660,16492,-2572,nan,0.000000
2,3,3,0,4740719,76990154,93817460,1354752555.185901,-1560,16440,-2508,nan,0.000000
2,3,3,0,4740719,76990154,93820081,1354752555.185901,-1432,16572,-2644,nan,0.000000
2,3,3,0,4740719,76990154,93822702,1354752555.185901,-1592,16648,-2556,nan,0.000000
1,3,4,0,4763532,77012676,93764263,1354752555.187849,-1612,16636,-2772,nan,0.000000
1,3,4,0,4763532,77012676,93766884,1354752555.187849,-1600,16608,-2624,nan,0.000000
2,3,5,0,4763532,77012721,93769505,1354752555.188677,-1512,16496,-2592,nan,0.000000
2,3,5,0,4763532,77012721,93772126,1354752555.188677,-1480,16580,-2560,nan,0.000000
2,3,5,0,4763532,77012721,93774747,1354752555.188677,-1532,16560,-2604,nan,0.000000
2,3,5,0,4763532,77012721,93777368,1354752555.188677,-1512,16560,-2552,nan,0.000000
2,3,5,0,4763532,77012721,93779989,1354752555.188677,-1516,16544,-2576,nan,0.000000
2,3,6,0,4763532,77012767,93782610,1354752555.190616,-1440,16624,-2608,nan,0.000000
2,3,6,0,4763532,77012767,93785231,1354752555.190616,-1416,16568,-2480,nan,0.000000
2,3,6,0,4763532,77012767,93787852,1354752555.190616,-1408,16596,-2424,nan,0.000000
2,3,6,0,4763532,77012767,93790473,1354752555.190616,-1456,16584,-2528,nan,0.000000
2,3,6,0,4763532,77012767,93793094,1354752555.190616,-1400,16576,-2544,nan,0.000000
2,3,7,0,4763532,77012813,93795715,1354752555.191823,-1396,16628,-2524,nan,0.000000
2,3,7,0,4763532,77012813,93798336,1354752555.191823,-1444,16548,-2484,nan,0.000000
2,3,7,0,4763532,77012813,93800957,1354752555.191823,-1420,16548,-2316,nan,0.000000
2,3,7,0,4763532,77012813,93803578,1354752555.191823,-1384,16648,-2404,nan,0.000000
2,3,7,0,4763532,77012813,93806199,1354752555.191823,-1460,16592,-2272,nan,0.000000
2,3,8,0,4763532,77012859,93808820,1354752555.193928,-1336,16544,-2552,nan,0.000000
2,3,8,0,4763532,77012859,93811441,1354752555.193928,-1340,16632,-2484,nan,0.000000
2,3,8,0,4763532,77012859,93814062,1354752555.193928,-1480,16524,-2000,nan,0.000000
2,3,8,0,4763532,77012859,93816683,1354752555.193928,-1416,16584,-2304,nan,0.000000
2,3,8,0,4763532,77012859,93819304,1354752555.193928,-1184,16756,-2580,nan,0.000000
2,3,9,0,4763532,77012904,93821925,1354752555.194616,-1396,16612,-2332,nan,0.000000
2,3,9,0,4763532,77012904,93824546,1354752555.194616,-1548,16520,-2108,nan,0.000000
2,3,9,0,4763532,77012904,93827167,1354752555.194616,-1332,16560,-2152,nan,0.000000
2,3,9,0,4763532,77012904,93829788,1354752555.194616,-1312,16620,-2264,nan,0.000000
2,3,9,0,4763532,77012904,93832409,1354752555.194616,-1356,16628,-2236,nan,0.000000
2,3,10,0,4763532,77012950,93835030,1354752555.881970,-1324,16608,-2332,nan,0.000000
2,3,10,0,4763532,77012950,93837651,1354752555.881970,-1312,16596,-2240,nan,0.000000
2,3,10,0,4763532,77012950,93840272,1354752555.881970,-1232,16556,-2088,nan,0.000000
2,3,10,0,4763532,77012950,93842893,1354752555.881970,-1360,16588,-2224,nan,0.000000
2,3,10,0,4763532,77012950,93845514,1354752555.881970,-1212,16636,-2224,nan,0.000000
1,3,11,0,4786345,77035487,93787076,1354752555.883853,-1272,16648,-2160,nan,0.000000
1,3,11,0,4786345,77035487,93789697,1354752555.883853,-1284,16572,-2152,nan,0.000000
2,3,12,0,4786345,77035533,93792318,1354752555.885859,-1408,16620,-2148,nan,0.000000
2,3,12,0,4786345,77035533,93794939,1354752555.885859,-1256,16612,-2172,nan,0.000000
2,3,12,0,4786345,77035533,93797560,1354752555.885859,-1244,16616,-2124,nan,0.000000
2,3,12,0,4786345,77035533,93800181,1354752555.885859,-1224,16636,-2172,nan,0.000000
2,3,12,0,4786345,77035533,93802802,1354752555.885859,-1292,16604,-2192,nan,0.000000
2,3,13,0,4786345,77035579,93805423,1354752555.886290,-1288,16616,-2192,nan,0.000000
2,3,13,0,4786345,77035579,93808044,1354752555.886290,-1276,16596,-2144,nan,0.000000
2,3,13,0,4786345,77035579,93810665,1354752555.886290,-1260,16572,-2224,nan,0.000000
2,3,13,0,4786345,77035579,93813286,1354752555.886290,-1316,16676,-2200,nan,0.000000
2,3,13,0,4786345,77035579,93815907,1354752555.886290,-1284,16592,-2156,nan,0.000000
2,3,14,0,4786345,77035624,93818528,1354752555.887852,-1232,16588,-2468,nan,0.000000
2,3,14,0,4786345,77035624,93821149,1354752555.887852,-1328,16604,-2168,nan,0.000000
2,3,14,0,4786345,77035624,93823770,1354752555.887852,-1320,16548,-1892,nan,0.000000
2,3,14,0,4786345,77035624,93826391,1354752555.887852,-1208,16708,-2448,nan,0.000000
2,3,14,0,4786345,77035624,93829012,1354752555.887852,-1192,16684,-2468,nan,0.000000
2,3,15,0,4786345,77035671,93831633,1354752555.889933,-1380,16512,-2268,nan,0.000000
2,3,15,0,4786345,77035671,93834254,1354752555.889933,-1332,16548,-2156,nan,0.000000
2,3,15,0,4786345,77035671,93836875,1354752555.889933,-1228,16632,-2292,nan,0.000000
2,3,15,0,4786345,77035671,93839496,1354752555.889933,-1220,16656,-2332,nan,0.000000
2,3,15,0,4786345,77035671,93842117,1354752555.889933,-1324,16600,-2372,nan,0.000000
2,3,0,0,4786345,77035716,93844738,1354752555.890811,-1332,16628,-2460,nan,0.000000
2,3,0,0,4786345,77035716,93847359,1354752555.890811,-1268,16624,-2412,nan,0.000000
2,3,0,0,4786345,77035716,93849980,1354752555.890811,-1204,16620,-2324,nan,0.000000
2,3,0,0,4786345,77035716,93852601,1354752555.890811,-1284,16520,-2368,nan,0.000000
2,3,0,0,4786345,77035716,93855222,1354752555.890811,-1336,16544,-2400,nan,0.000000
2,3,1,0,4786345,77035762,93857843,1354752556.577849,-1344,16584,-2524,nan,0.000000
2,3,1,0,4786345,77035762,93860464,1354752556.577849,-1332,16636,-2368,nan,0.000000
2,3,1,0,4786345,77035762,93863085,1354752556.577849,-1324,16632,-2452,nan,0.000000
2,3,1,0,4786345,77035762,93865706,1354752556.577849,-1364,16584,-2500,nan,0.000000
2,3,1,0,4786345,77035762,93868327,1354752556.577849,-1404,16608,-2432,nan,0.000000
1,3,2,0,4809158,77058302,93809889,1354752556.580083,-1340,16592,-2516,nan,0.000000
1,3,2,0,4809158,77058302,93812510,1354752556.580083,-1320,16612,-2500,nan,0.000000
2,3,3,0,4809158,77058347,93815131,1354752556.582353,-1356,16580,-2480,nan,0.000000
2,3,3,0,4809158,77058347,93817752,1354752556.582353,-1412,16580,-2512,nan,0.000000
2,3,3,0,4809158,77058347,93820373,1354752556.582353,-1380,16568,-2512,nan,0.000000
2,3,3,0,4809158,77058347,93822994,1354752556.582353,-1368,16524,-2556,nan,0.000000
2,3,3,0,4809158,77058347,93825615,1354752556.582353,-1324,16560,-2480,nan,0.000000
2,3,4,0,4809158,77058393,93828236,1354752556.584528,-1308,16572,-2548,nan,0.000000
2,3,4,0,4809158,77058393,93830857,1354752556.584528,-1368,16632,-2540,nan,0.000000
2,3,4,0,4809158,77058393,93833478,1354752556.584528,-1380,16512,-2748,nan,0.000000
2,3,4,0,4809158,77058393,93836099,1354752556.584528,-1424,16616,-2644,nan,0.000000
2,3,4,0,4809158,77058393,93838720,1354752556.584528,-1404,16492,-2224,nan,0.000000
2,3,5,0,4809158,77058439,93841341,1354752556.587048,-1396,16576,-2644,nan,0.000000
2,3,5,0,4809158,77058439,93843962,1354752556.587048,-1268,16664,-2856,nan,0.000000
2,3,5,0,4809158,77058439,93846583,1354752556.587048,-1428,16556,-2688,nan,0.000000
2,3,5,0,4809158,77058439,93849204,1354752556.587048,-1560,16512,-2512,nan,0.000000
2,3,5,0,4809158,77058439,93851825,1354752556.587048,-1348,16536,-2528,nan,0.000000
2,3,6,0,4809158,77058485,93854446,1354752556.594804,-1376,16572,-2568,nan,0.000000
2,3,6,0,4809158,77058485,93857067,1354752556.594804,-1372,16600,-2736,nan,0.000000
2,3,6,0,4809158,77058485,93859688,1354752556.594804,-1412,16612,-2576,nan,0.000000
2,3,6,0,4809158,77058485,93862309,1354752556.594804,-1356,16580,-2624,nan,0.000000
2,3,6,0,4809158,77058485,93864930,1354752556.594804,-1452,16588,-2524,nan,0.000000
2,3,7,0,4809158,77058530,93867551,1354752556.597060,-1432,16496,-2540,nan,0.000000
2,3,7,0,4809158,77058530,93870172,1354752556.597060,-1392,16556,-2728,nan,0.000000
2,3,7,0,4809158,77058530,93872793,1354752556.597060,-1464,16604,-2668,nan,0.000000
2,3,7,0,4809158,77058530,93875414,1354752556.597060,-1448,16584,-2688,nan,0.000000
2,3,7,0,4809158,77058530,93878035,1354752556.597060,-1444,16560,-2644,nan,0.000000
2,3,8,0,4809158,77058576,93880656,1354752557.273794,-1432,16544,-2508,nan,0.000000
2,3,8,0,4809158,77058576,93883277,1354752557.273794,-1436,16592,-2556,nan,0.000000
2,3,8,0,4809158,77058576,93885898,1354752557.273794,-1492,16560,-2568,nan,0.000000
2,3,8,0,4809158,77058576,93888519,1354752557.273794,-1468,16608,-2616,nan,0.000000
2,3,8,0,4809158,77058576,93891140,1354752557.273794,-1436,16596,-2616,nan,0.000000
1,3,9,0,4831971,77081116,93832702,1354752557.275792,-1444,16584,-2620,nan,0.000000
1,3,9,0,4831971,77081116,93835323,1354752557.275792,-1520,16568,-2532,nan,0.000000
2,3,10,0,4831971,77081162,93837944,1354752557.278012,-1464,16564,-2648,nan,0.000000
2,3,10,0,4831971,77081162,93840565,1354752557.278012,-1468,16536,-2672,nan,0.000000
2,3,10,0,4831971,77081162,93843186,1354752557.278012,-1448,16588,-2636,nan,0.000000
2,3,10,0,4831971,77081162,93845807,1354752557.278012,-1416,16560,-2532,nan,0.000000
2,3,10,0,4831971,77081162,93848428,1354752557.278012,-1468,16544,-2680,nan,0.000000
2,3,11,0,4831971,77081207,93851049,1354752557.279969,-1432,16544,-2600,nan,0.000000
2,3,11,0,4831971,77081207,93853670,1354752557.279969,-1476,16508,-2792,nan,0.000000
2,3,11,0,4831971,77081207,93856291,1354752557.279969,-1404,16552,-2768,nan,0.000000
2,3,11,0,4831971,77081207,93858912,1354752557.279969,-1444,16552,-2380,nan,0.000000
2,3,11,0,4831971,77081207,93861533,1354752557.279969,-1452,16504,-2540,nan,0.000000
2,3,12,0,4831971,77081253,93864154,1354752557.280408,-1316,16632,-2844,nan,0.000000
2,3,12,0,4831971,77081253,93866775,1354752557.280408,-1524,16552,-2760,nan,0.000000
2,3,12,0,4831971,77081253,93869396,1354752557.280408,-1560,16496,-2552,nan,0.000000
2,3,12,0,4831971,77081253,93872017,1354752557.280408,-1368,16524,-2652,nan,0.000000
2,3,12,0,4831971,77081253,93874638,1354752557.280408,-1376,16584,-2688,nan,0.000000
2,3,13,0,4831971,77081299,93877259,1354752557.281844,-1408,16624,-2732,nan,0.000000
2,3,13,0,4831971,77081299,93879880,1354752557.281844,-1468,16572,-2684,nan,0.000000
2,3,13,0,4831971,77081299,93882501,1354752557.281844,-1356,16544,-2676,nan,0.000000
2,3,13,0,4831971,77081299,93885122,1354752557.281844,-1404,16580,-2764,nan,0.000000
2,3,13,0,4831971,77081299,93887743,1354752557.281844,-1396,16448,-2660,nan,0.000000
2,3,14,0,4831971,77081345,93890364,1354752557.283825,-1372,16532,-2780,nan,0.000000
2,3,14,0,4831971,77081345,93892985,1354752557.283825,-1392,16532,-2764,nan,0.000000
2,3,14,0,4831971,77081345,93895606,1354752557.283825,-1448,16536,-2792,nan,0.000000
2,3,14,0,4831971,77081345,93898227,1354752557.283825,-1448,16544,-2768,nan,0.000000
2,3,14,0,4831971,77081345,93900848,1354752557.283825,-1416,16564,-2796,nan,0.000000
2,3,15,0,4831971,77081391,93903469,1354752557.971815,-1340,16528,-2796,nan,0.000000
2,3,15,0,4831971,77081391,93906090,1354752557.971815,-1388,16576,-2676,nan,0.000000
2,3,15,0,4831971,77081391,93908711,1354752557.971815,-1368,16568,-2736,nan,0.000000
2,3,15,0,4831971,77081391,93911332,1354752557.971815,-1352,16572,-2804,nan,0.000000
2,3,15,0,4831971,77081391,93913953,1354752557.971815,-1388,16544,-2760,nan,0.000000
1,3,0,0,4854784,77103930,93855515,1354752557.972752,-1468,16504,-2732,nan,0.000000
1,3,0,0,4854784,77103930,93858136,1354752557.972752,-1460,16508,-2736,nan,0.000000
2,3,1,0,4854784,77103976,93860757,1354752557.973740,-1408,16524,-2748,nan,0.000000
2,3,1,0,4854784,77103976,93863378,1354752557.973740,-1448,16532,-2828,nan,0.000000
2,3,1,0,4854784,77103976,93865999,1354752557.973740,-1400,16556,-2768,nan,0.000000
2,3,1,0,4854784,77103976,93868620,1354752557.973740,-1376,16528,-2752,nan,0.000000
2,3,1,0,4854784,77103976,93871241,1354752557.973740,-1372,16516,-2736,nan,0.000000
2,3,2,0,4854784,77104022,93873862,1354752557.975783,-1352,16516,-2716,nan,0.000000
2,3,2,0,4854784,77104022,93876483,1354752557.975783,-1332,16536,-2624,nan,0.000000
2,3,2,0,4854784,77104022,93879104,1354752557.975783,-1344,16568,-2636,nan,0.000000
2,3,2,0,4854784,77104022,93881725,1354752557.975783,-1364,16568,-2656,nan,0.000000
2,3,2,0,4854784,77104022,93884346,1354752557.975783,-1356,16540,-2896,nan,0.000000
2,3,3,0,4854784,77104068,93886967,1354752557.976788,-1356,16680,-2796,nan,0.000000
2,3,3,0,4854784,77104068,93889588,1354752557.976788,-1424,16520,-2312,nan,0.000000
2,3,3,0,4854784,77104068,93892209,1354752557.976788,-1340,16568,-2604,nan,0.000000
2,3,3,0,4854784,77104068,93894830,1354752557.976788,-1260,16656,-3012,nan,0.000000
2,3,3,0,4854784,77104068,93897451,1354752557.976788,-1440,16532,-2700,nan,0.000000
2,3,4,0,4854784,77104113,93900072,1354752557.977748,-1472,16524,-2420,nan,0.000000
2,3,4,0,4854784,77104113,93902693,1354752557.977748,-1276,16572,-2432,nan,0.000000
2,3,4,0,4854784,77104113,93905314,1354752557.977748,-1284,16660,-2584,nan,0.000000
2,3,4,0,4854784,77104113,93907935,1354752557.977748,-1400,16616,-2584,nan,0.000000
2,3,4,0,4854784,77104113,93910556,1354752557.977748,-1372,16568,-2588,nan,0.000000
2,3,5,0,4854784,77104159,93913177,1354752557.980939,-1320,16612,-2596,nan,0.000000
2,3,5,0,4854784,77104159,93915798,1354752557.980939,-1304,16600,-2420,nan,0.000000
2,3,5,0,4854784,77104159,93918419,1354752557.980939,-1368,16480,-2336,nan,0.000000
2,3,5,0,4854784,77104159,93921040,1354752557.980939,-1332,16572,-2440,nan,0.000000
2,3,5,0,4854784,77104159,93923661,1354752557.980939,-1364,16576,-2520,nan,0.000000
2,3,6,0,4854784,77104205,93926282,1354752558.667820,-1336,16636,-2508,nan,0.000000
2,3,6,0,4854784,77104205,93928903,1354752558.667820,-1304,16608,-2440,nan,0.000000
2,3,6,0,4854784,77104205,93931524,1354752558.667820,-1220,16592,-2292,nan,0.000000
2,3,6,0,4854784,77104205,93934145,1354752558.667820,-1324,16548,-2236,nan,0.000000
2,3,6,0,4854784,77104205,93936766,1354752558.667820,-1316,16608,-2264,nan,0.000000
1,3,7,0,4877597,77126745,93878328,1354752558.668960,-1288,16608,-2344,nan,0.000000
1,3,7,0,4877597,77126745,93880949,1354752558.668960,-1304,16584,-2260,nan,0.000000
2,3,8,0,4877597,77126790,93883570,1354752558.669728,-1268,16636,-2184,nan,0.000000
2,3,8,0,4877597,77126790,93886191,1354752558.669728,-1260,16620,-2188,nan,0.000000
2,3,8,0,4877597,77126790,93888812,1354752558.669728,-1196,16560,-2308,nan,0.000000
2,3,8,0,4877597,77126790,93891433,1354752558.669728,-1208,16604,-2240,nan,0.000000
2,3,8,0,4877597,77126790,93894054,1354752558.669728,-1228,16616,-2208,nan,0.000000
2,3,9,0,4877597,77126836,93896675,1354752558.671789,-1248,16632,-2176,nan,0.000000
2,3,9,0,4877597,77126836,93899296,1354752558.671789,-1240,16636,-2292,nan,0.000000
2,3,9,0,4877597,77126836,93901917,1354752558.671789,-1224,16652,-2288,nan,0.000000
2,3,9,0,4877597,77126836,93904538,1354752558.671789,-1224,16620,-2224,nan,0.000000
2,3,9,0,4877597,77126836,93907159,1354752558.671789,-1228,16564,-2196,nan,0.000000
2,3,10,0,4877597,77126882,93909780,1354752558.674026,-1196,16600,-2268,nan,0.000000
2,3,10,0,4877597,77126882,93912401,1354752558.674026,-1240,16644,-2092,nan,0.000000
2,3,10,0,4877597,77126882,93915022,1354752558.674026,-1260,16560,-2288,nan,0.000000
2,3,10,0,4877597,77126882,93917643,1354752558.674026,-1280,16620,-2404,nan,0.000000
2,3,10,0,4877597,77126882,93920264,1354752558.674026,-1280,16616,-1904,nan,0.000000
2,3,11,0,4877597,77126928,93922885,1354752558.674559,-1232,16672,-2136,nan,0.000000
2,3,11,0,4877597,77126928,93925506,1354752558.674559,-1104,16724,-2572,nan,0.000000
2,3,11,0,4877597,77126928,93928127,1354752558.674559,-1224,16560,-2264,nan,0.000000
2,3,11,0,4877597,77126928,93930748,1354752558.674559,-1344,16448,-2016,nan,0.000000
2,3,11,0,4877597,77126928,93933369,1354752558.674559,-1196,16604,-2148,nan,0.000000
2,3,12,0,4877597,77126973,93935990,1354752558.676038,-1144,16716,-2256,nan,0.000000
2,3,12,0,4877597,77126973,93938611,1354752558.676038,-1248,16696,-2208,nan,0.000000
2,3,12,0,4877597,77126973,93941232,1354752558.676038,-1272,16620,-2224,nan,0.000000
2,3,12,0,4877597,77126973,93943853,1354752558.676038,-1220,16592,-2204,nan,0.000000
2,3,12,0,4877597,77126973,93946474,1354752558.676038,-1144,16616,-2352,nan,0.000000
2,3,13,0,4877597,77127019,93949095,1354752559.363883,-1140,16568,-2116,nan,0.000000
2,3,13,0,4877597,77127019,93951716,1354752559.363883,-1200,16596,-2268,nan,0.000000
2,3,13,0,4877597,77127019,93954337,1354752559.363883,-1168,16640,-2296,nan,0.000000
2,3,13,0,4877597,77127019,93956958,1354752559.363883,-1168,16704,-2324,nan,0.000000
2,3,13,0,4877597,77127019,93959579,1354752559.363883,-1284,16616,-2276,nan,0.000000
1,3,14,0,4900410,77149557,93901141,1354752559.365778,-1232,16588,-2296,nan,0.000000
1,3,14,0,4900410,77149557,93903762,1354752559.365778,-1220,16604,-2296,nan,0.000000
2,3,15,0,4900410,77149603,93906383,1354752559.366322,-1244,16604,-2352,nan,0.000000
2,3,15,0,4900410,77149603,93909004,1354752559.366322,-1184,16636,-2348,nan,0.000000
2,3,15,0,4900410,77149603,93911625,1354752559.366322,-1248,16568,-2320,nan,0.000000
2,3,15,0,4900410,77149603,93914246,1354752559.366322,-1308,16640,-2372,nan,0.000000
2,3,15,0,4900410,77149603,93916867,1354752559.366322,-1292,16588,-2404,nan,0.000000
2,3,0,0,4900410,77149648,93919488,1354752559.369766,-1276,16636,-2464,nan,0.000000
2,3,0,0,4900410,77149648,93922109,1354752559.369766,-1300,16600,-2428,nan,0.000000
2,3,0,0,4900410,77149648,93924730,1354752559.369766,-1280,16592,-2436,nan,0.000000
2,3,0,0,4900410,77149648,93927351,1354752559.369766,-1332,16604,-2384,nan,0.000000
2,3,0,0,4900410,77149648,93929972,1354752559.369766,-1300,16580,-2364,nan,0.000000
2,3,1,0,4900410,77149694,93932593,1354752559.375795,-1332,16596,-2424,nan,0.000000
2,3,1,0,4900410,77149694,93935214,1354752559.375795,-1336,16580,-2484,nan,0.000000
2,3,1,0,4900410,77149694,93937835,1354752559.375795,-1304,16500,-2532,nan,0.000000
2,3,1,0,4900410,77149694,93940456,1354752559.375795,-1280,16572,-2552,nan,0.000000
2,3,1,0,4900410,77149694,93943077,1354752559.375795,-1328,16584,-2420,nan,0.000000
2,3,2,0,4900410,77149740,93945698,1354752559.378151,-1324,16568,-2608,nan,0.000000
2,3,2,0,4900410,77149740,93948319,1354752559.378151,-1280,16600,-2744,nan,0.000000
2,3,2,0,4900410,77149740,93950940,1354752559.378151,-1336,16552,-2256,nan,0.000000
2,3,2,0,4900410,77149740,93953561,1354752559.378151,-1336,16580,-2436,nan,0.000000
2,3,2,0,4900410,77149740,93956182,1354752559.378151,-1204,16640,-2732,nan,0.000000
2,3,3,0,4900410,77149785,93958803,1354752559.381208,-1428,16548,-2796,nan,0.000000
2,3,3,0,4900410,77149785,93961424,1354752559.381208,-1544,16480,-2536,nan,0.000000
2,3,3,0,4900410,77149785,93964045,1354752559.381208,-1372,16464,-2472,nan,0.000000
2,3,3,0,4900410,77149785,93966666,1354752559.381208,-1308,16572,-2500,nan,0.000000
2,3,3,0,4900410,77149785,93969287,1354752559.381208,-1344,16656,-2588,nan,0.000000
2,3,4,0,4900410,77149832,93971908,1354752560.059758,-1348,16620,-2648,nan,0.000000
2,3,4,0,4900410,77149832,93974529,1354752560.059758,-1420,16532,-2596,nan,0.000000
2,3,4,0,4900410,77149832,93977150,1354752560.059758,-1432,16596,-2728,nan,0.000000
2,3,4,0,4900410,77149832,93979771,1354752560.059758,-1396,16476,-2576,nan,0.000000
2,3,4,0,4900410,77149832,93982392,1354752560.059758,-1424,16468,-2524,nan,0.000000
1,3,5,0,4923222,77172371,93923954,1354752560.061748,-1492,16596,-2640,nan,0.000000
1,3,5,0,4923222,77172371,93926575,1354752560.061748,-1480,16616,-2580,nan,0.000000
2,3,6,0,4923222,77172417,93929196,1354752560.062187,-1436,16536,-2552,nan,0.000000
2,3,6,0,4923222,77172417,93931817,1354752560.062187,-1492,16540,-2536,nan,0.000000
2,3,6,0,4923222,77172417,93934438,1354752560.062187,-1504,16552,-2584,nan,0.000000
2,3,6,0,4923222,77172417,93937059,1354752560.062187,-1524,16484,-2588,nan,0.000000
2,3,6,0,4923222,77172417,93939680,1354752560.062187,-1488,16552,-2652,nan,0.000000
2,3,7,0,4923222,77172462,93942301,1354752560.063770,-1508,16568,-2648,nan,0.000000
2,3,7,0,4923222,77172462,93944922,1354752560.063770,-1476,16540,-2608,nan,0.000000
2,3,7,0,4923222,77172462,93947543,1354752560.063770,-1452,16532,-2552,nan,0.000000
2,3,7,0,4923222,77172462,93950164,1354752560.063770,-1528,16556,-2600,nan,0.000000
2,3,7,0,4923222,77172462,93952785,1354752560.063770,-1520,16556,-2632,nan,0.000000
2,3,8,0,4923222,77172508,93955406,1354752560.065742,-1540,16564,-2640,nan,0.000000
2,3,8,0,4923222,77172508,93958027,1354752560.065742,-1540,16572,-2576,nan,0.000000
2,3,8,0,4923222,77172508,93960648,1354752560.065742,-1500,16520,-2600,nan,0.000000
2,3,8,0,4923222,77172508,93963269,1354752560.065742,-1508,16540,-2596,nan,0.000000
2,3,8,0,4923222,77172508,93965890,1354752560.065742,-1448,16572,-2612,nan,0.000000
2,3,9,0,4923222,77172554,93968511,1354752560.067582,-1488,16556,-2676,nan,0.000000
2,3,9,0,4923222,77172554,93971132,1354752560.067582,-1408,16556,-2636,nan,0.000000
2,3,9,0,4923222,77172554,93973753,1354752560.067582,-1548,16608,-2548,nan,0.000000
2,3,9,0,4923222,77172554,93976374,1354752560.067582,-1512,16504,-2820,nan,0.000000
2,3,9,0,4923222,77172554,93978995,1354752560.067582,-1508,16628,-2672,nan,0.000000
2,3,10,0,4923222,77172600,93981616,1354752560.068297,-1560,16576,-2312,nan,0.000000
2,3,10,0,4923222,77172600,93984237,1354752560.068297,-1536,16620,-2544,nan,0.000000
2,3,10,0,4923222,77172600,93986858,1354752560.068297,-1392,16672,-2888,nan,0.000000
2,3,10,0,4923222,77172600,93989479,1354752560.068297,-1596,16560,-2716,nan,0.000000
2,3,10,0,4923222,77172600,93992100,1354752560.068297,-1668,16552,-2516,nan,0.000000
2,3,11,0,4923222,77172646,93994721,1354752561.451863,-1548,16608,-2456,nan,0.000000
2,3,11,0,4923222,77172646,93997342,1354752561.451863,-1464,16580,-2492,nan,0.000000
2,3,11,0,4923222,77172646,93999963,1354752561.451863,-1600,16696,-2524,nan,0.000000
2,3,11,0,4923222,77172646,94002584,1354752561.451863,-1648,16644,-2528,nan,0.000000
2,3,11,0,4923222,77172646,94005205,1354752561.451863,-1588,16636,-2520,nan,0.000000
1,3,12,0,4946035,77217998,93946766,1354752561.453742,-1632,16636,-2464,nan,0.000000
1,3,12,0,4946035,77217998,93949387,1354752561.453742,-1612,16648,-2412,nan,0.000000
2,3,13,0,4946035,77218044,93952008,1354752561.455745,-1556,16648,-2428,nan,0.000000
2,3,13,0,4946035,77218044,93954629,1354752561.455745,-1636,16652,-2512,nan,0.000000
2,3,13,0,4946035,77218044,93957250,1354752561.455745,-1680,16608,-2372,nan,0.000000
2,3,13,0,4946035,77218044,93959871,1354752561.455745,-1616,16608,-2356,nan,0.000000
2,3,13,0,4946035,77218044,93962492,1354752561.455745,-1588,16600,-2416,nan,0.000000
2,3,14,0,4946035,77218090,93965113,1354752561.456325,-1700,16616,-2372,nan,0.000000
2,3,14,0,4946035,77218090,93967734,1354752561.456325,-1700,16548,-2308,nan,0.000000
2,3,14,0,4946035,77218090,93970355,1354752561.456325,-1720,16584,-2340,nan,0.000000
2,3,14,0,4946035,77218090,93972976,1354752561.456325,-1736,16548,-2348,nan,0.000000
2,3,14,0,4946035,77218090,93975597,1354752561.456325,-1796,16568,-2308,nan,0.000000
2,3,15,0,4946035,77218135,93978218,1354752561.457674,-1716,16600,-2256,nan,0.000000
2,3,15,0,4946035,77218135,93980839,1354752561.457674,-1640,16624,-2180,nan,0.000000
