type,ID,seq,packetLoss,nodeTimestamp,bsTimestamp,syncTimestamp,systemTime,accelX,accelY,accelZ,cannula,voltage
1,5,10,0,2957764,171984476,7565485458314473476,1361196632.642380,19388,2736,-832,nan,0.000000
1,5,10,0,2957764,171984476,7565485458314476097,1361196632.642380,14404,-2876,188,nan,0.000000
2,5,11,0,2957764,171984508,7565485458314478718,1361196632.642622,16340,3460,-488,nan,0.000000
2,5,11,0,2957764,171984508,7565485458314481339,1361196632.642622,14520,-416,776,nan,0.000000
2,5,11,0,2957764,171984508,7565485458314483960,1361196632.642622,15220,572,420,nan,0.000000
2,5,11,0,2957764,171984508,7565485458314486581,1361196632.642622,15476,-936,3144,nan,0.000000
2,5,11,0,2957764,171984508,7565485458314489202,1361196632.642622,17516,4512,6404,nan,0.000000
2,5,12,0,2957764,171984539,7565485458314491823,1361196632.643030,15456,4608,5424,nan,0.000000
2,5,12,0,2957764,171984539,7565485458314494444,1361196632.643030,15460,2076,9092,nan,0.000000
2,5,12,0,2957764,171984539,7565485458314497065,1361196632.643030,12668,2256,6608,nan,0.000000
2,5,12,0,2957764,171984539,7565485458314499686,1361196632.643030,13496,4440,8632,nan,0.000000
2,5,12,0,2957764,171984539,7565485458314502307,1361196632.643030,14036,3864,8980,nan,0.000000
2,5,13,0,2957764,171984571,7565485458314504928,1361196632.643366,12812,4252,9052,nan,0.000000
2,5,13,0,2957764,171984571,7565485458314507549,1361196632.643366,12444,3820,8672,nan,0.000000
2,5,13,0,2957764,171984571,7565485458314510170,1361196632.643366,12940,6468,8844,nan,0.000000
2,5,13,0,2957764,171984571,7565485458314512791,1361196632.643366,12700,6176,8560,nan,0.000000
2,5,13,0,2957764,171984571,7565485458314515412,1361196632.643366,12508,6448,8496,nan,0.000000
2,5,14,0,2957764,171984603,7565485458314518033,1361196632.643752,11912,8492,7568,nan,0.000000
2,5,14,0,2957764,171984603,7565485458314520654,1361196632.643752,11524,9628,7548,nan,0.000000
2,5,14,0,2957764,171984603,7565485458314523275,1361196632.643752,11136,8964,7016,nan,0.000000
2,5,14,0,2957764,171984603,7565485458314525896,1361196632.643752,11324,9472,6948,nan,0.000000
2,5,14,0,2957764,171984603,7565485458314528517,1361196632.643752,11404,9124,7364,nan,0.000000
2,5,15,0,2957764,171984634,7565485458314531138,1361196632.644130,11496,9852,7500,nan,0.000000
2,5,15,0,2957764,171984634,7565485458314533759,1361196632.644130,11320,9320,8124,nan,0.000000
2,5,15,0,2957764,171984634,7565485458314536380,1361196632.644130,10812,9020,8668,nan,0.000000
2,5,15,0,2957764,171984634,7565485458314539001,1361196632.644130,10604,9372,8564,nan,0.000000
2,5,15,0,2957764,171984634,7565485458314541622,1361196632.644130,10424,9148,8692,nan,0.000000
2,5,0,0,2957764,171984666,7565485458314544243,1361196632.644553,10504,8740,8864,nan,0.000000
2,5,0,0,2957764,171984666,7565485458314546864,1361196632.644553,10560,9152,9056,nan,0.000000
2,5,0,0,2957764,171984666,7565485458314549485,1361196632.644553,10564,9064,9140,nan,0.000000
2,5,0,0,2957764,171984666,7565485458314552106,1361196632.644553,10316,8888,9188,nan,0.000000
2,5,0,0,2957764,171984666,7565485458314554727,1361196632.644553,10312,9192,9144,nan,0.000000
1,5,1,0,3039021,172065736,6927591909458812962,1361196632.644967,10504,8996,8848,nan,0.000000
1,5,1,0,3039021,172065736,6927591909458815583,1361196632.644967,10396,9172,8732,nan,0.000000
2,5,2,0,3039021,172065767,6927591909458818204,1361196632.645145,10356,9292,8708,nan,0.000000
2,5,2,0,3039021,172065767,6927591909458820825,1361196632.645145,10376,9540,8896,nan,0.000000
2,5,2,0,3039021,172065767,6927591909458823446,1361196632.645145,9800,9864,9516,nan,0.000000
2,5,2,0,3039021,172065767,6927591909458826067,1361196632.645145,10472,9220,8468,nan,0.000000
2,5,2,0,3039021,172065767,6927591909458828688,1361196632.645145,10136,9672,9188,nan,0.000000
2,5,3,0,3039021,172065799,6927591909458831309,1361196632.645521,10224,9268,8852,nan,0.000000
2,5,3,0,3039021,172065799,6927591909458833930,1361196632.645521,10340,9460,8876,nan,0.000000
2,5,3,0,3039021,172065799,6927591909458836551,1361196632.645521,10292,9520,8784,nan,0.000000
2,5,3,0,3039021,172065799,6927591909458839172,1361196632.645521,10248,9592,8752,nan,0.000000
2,5,3,0,3039021,172065799,6927591909458841793,1361196632.645521,10348,9636,8716,nan,0.000000
2,5,4,0,3039021,172065831,6927591909458844414,1361196632.645948,10404,9552,8520,nan,0.000000
2,5,4,0,3039021,172065831,6927591909458847035,1361196632.645948,10396,9740,8608,nan,0.000000
2,5,4,0,3039021,172065831,6927591909458849656,1361196632.645948,10292,9592,8412,nan,0.000000
2,5,4,0,3039021,172065831,6927591909458852277,1361196632.645948,10488,9692,8452,nan,0.000000
2,5,4,0,3039021,172065831,6927591909458854898,1361196632.645948,10488,9600,8344,nan,0.000000
2,5,5,0,3039021,172065863,6927591909458857519,1361196632.646327,10528,9644,8328,nan,0.000000
2,5,5,0,3039021,172065863,6927591909458860140,1361196632.646327,10564,9660,8364,nan,0.000000
2,5,5,0,3039021,172065863,6927591909458862761,1361196632.646327,10656,9604,8224,nan,0.000000
2,5,5,0,3039021,172065863,6927591909458865382,1361196632.646327,10592,9552,8308,nan,0.000000
2,5,5,0,3039021,172065863,6927591909458868003,1361196632.646327,10728,9496,8312,nan,0.000000
2,5,6,0,3039021,172065894,6927591909458870624,1361196632.646727,10628,9544,8284,nan,0.000000
2,5,6,0,3039021,172065894,6927591909458873245,1361196632.646727,10636,9492,8272,nan,0.000000
2,5,6,0,3039021,172065894,6927591909458875866,1361196632.646727,10676,9500,8396,nan,0.000000
2,5,6,0,3039021,172065894,6927591909458878487,1361196632.646727,10644,9496,8308,nan,0.000000
2,5,6,0,3039021,172065894,6927591909458881108,1361196632.646727,10604,9512,8360,nan,0.000000
2,5,7,0,3039021,172065926,6927591909458883729,1361196633.374180,10652,9516,8380,nan,0.000000
2,5,7,0,3039021,172065926,6927591909458886350,1361196633.374180,10648,9536,8368,nan,0.000000
2,5,7,0,3039021,172065926,6927591909458888971,1361196633.374180,10672,9464,8352,nan,0.000000
2,5,7,0,3039021,172065926,6927591909458891592,1361196633.374180,10632,9448,8368,nan,0.000000
2,5,7,0,3039021,172065926,6927591909458894213,1361196633.374180,10632,9488,8360,nan,0.000000
1,5,8,0,3120277,172146997,-5755529793568654304,1361196633.374778,10636,9464,8440,nan,0.000000
1,5,8,0,3120277,172146997,-5755529793568651683,1361196633.374778,10632,9388,8352,nan,0.000000
2,5,9,0,3120277,172147028,-5755529793568649062,1361196633.376183,10700,9452,8432,nan,0.000000
2,5,9,0,3120277,172147028,-5755529793568646441,1361196633.376183,10640,9356,8456,nan,0.000000
2,5,9,0,3120277,172147028,-5755529793568643820,1361196633.376183,10600,9344,8400,nan,0.000000
2,5,9,0,3120277,172147028,-5755529793568641199,1361196633.376183,10680,9404,8480,nan,0.000000
2,5,9,0,3120277,172147028,-5755529793568638578,1361196633.376183,10676,9396,8476,nan,0.000000
2,5,10,0,3120277,172147061,-5755529793568635957,1361196633.376774,10632,9448,8364,nan,0.000000
2,5,10,0,3120277,172147061,-5755529793568633336,1361196633.376774,10640,9444,8484,nan,0.000000
2,5,10,0,3120277,172147061,-5755529793568630715,1361196633.376774,10660,9416,8388,nan,0.000000
2,5,10,0,3120277,172147061,-5755529793568628094,1361196633.376774,10656,9424,8496,nan,0.000000
2,5,10,0,3120277,172147061,-5755529793568625473,1361196633.376774,10624,9364,8428,nan,0.000000
2,5,11,0,3120277,172147092,-5755529793568622852,1361196633.377995,10672,9416,8380,nan,0.000000
2,5,11,0,3120277,172147092,-5755529793568620231,1361196633.377995,10712,9392,8344,nan,0.000000
2,5,11,0,3120277,172147092,-5755529793568617610,1361196633.377995,10692,9396,8400,nan,0.000000
2,5,11,0,3120277,172147092,-5755529793568614989,1361196633.377995,10664,9400,8396,nan,0.000000
2,5,11,0,3120277,172147092,-5755529793568612368,1361196633.377995,10668,9404,8420,nan,0.000000
2,5,12,0,3120277,172147125,-5755529793568609747,1361196633.378561,10656,9424,8388,nan,0.000000
2,5,12,0,3120277,172147125,-5755529793568607126,1361196633.378561,10660,9412,8452,nan,0.000000
2,5,12,0,3120277,172147125,-5755529793568604505,1361196633.378561,10624,9440,8460,nan,0.000000
2,5,12,0,3120277,172147125,-5755529793568601884,1361196633.378561,10648,9424,8448,nan,0.000000
2,5,12,0,3120277,172147125,-5755529793568599263,1361196633.378561,10648,9380,8416,nan,0.000000
2,5,13,0,3120277,172147156,-5755529793568596642,1361196633.380118,10728,9400,8396,nan,0.000000
2,5,13,0,3120277,172147156,-5755529793568594021,1361196633.380118,10664,9368,8396,nan,0.000000
2,5,13,0,3120277,172147156,-5755529793568591400,1361196633.380118,10656,9432,8404,nan,0.000000
2,5,13,0,3120277,172147156,-5755529793568588779,1361196633.380118,10692,9384,8500,nan,0.000000
2,5,13,0,3120277,172147156,-5755529793568586158,1361196633.380118,10688,9248,8476,nan,0.000000
2,5,14,0,3120277,172147189,-5755529793568583537,1361196635.853976,10736,9388,8408,nan,0.000000
2,5,14,0,3120277,172147189,-5755529793568580916,1361196635.853976,10764,9344,8288,nan,0.000000
2,5,14,0,3120277,172147189,-5755529793568578295,1361196635.853976,10796,9340,8192,nan,0.000000
2,5,14,0,3120277,172147189,-5755529793568575674,1361196635.853976,10844,9392,8184,nan,0.000000
2,5,14,0,3120277,172147189,-5755529793568573053,1361196635.853976,10788,9396,8088,nan,0.000000
1,5,15,0,3201534,172228258,6926677119207135264,1361196635.854575,10744,9388,8292,nan,0.000000
1,5,15,0,3201534,172228258,6926677119207137885,1361196635.854575,10764,9372,8312,nan,0.000000
2,5,0,0,3201534,172228289,6926677119207140506,1361196635.856123,10728,9420,8312,nan,0.000000
2,5,0,0,3201534,172228289,6926677119207143127,1361196635.856123,10696,9432,8396,nan,0.000000
2,5,0,0,3201534,172228289,6926677119207145748,1361196635.856123,10700,9252,8488,nan,0.000000
2,5,0,0,3201534,172228289,6926677119207148369,1361196635.856123,10704,9380,8484,nan,0.000000
2,5,0,0,3201534,172228289,6926677119207150990,1361196635.856123,10636,9336,8564,nan,0.000000
2,5,1,0,3201534,172228322,6926677119207153611,1361196635.856659,10548,9384,8652,nan,0.000000
2,5,1,0,3201534,172228322,6926677119207156232,1361196635.856659,10528,9368,8640,nan,0.000000
2,5,1,0,3201534,172228322,6926677119207158853,1361196635.856659,10536,9300,8696,nan,0.000000
2,5,1,0,3201534,172228322,6926677119207161474,1361196635.856659,10492,9372,8776,nan,0.000000
2,5,1,0,3201534,172228322,6926677119207164095,1361196635.856659,10440,9300,8820,nan,0.000000
2,5,2,0,3201534,172228353,6926677119207166716,1361196635.858136,10448,9480,8804,nan,0.000000
2,5,2,0,3201534,172228353,6926677119207169337,1361196635.858136,10368,9212,8872,nan,0.000000
2,5,2,0,3201534,172228353,6926677119207171958,1361196635.858136,10296,9356,8956,nan,0.000000
2,5,2,0,3201534,172228353,6926677119207174579,1361196635.858136,10388,9400,8724,nan,0.000000
2,5,2,0,3201534,172228353,6926677119207177200,1361196635.858136,10300,9248,8908,nan,0.000000
2,5,3,0,3201534,172228386,6926677119207179821,1361196635.858598,10276,9504,8884,nan,0.000000
2,5,3,0,3201534,172228386,6926677119207182442,1361196635.858598,10304,9648,8852,nan,0.000000
2,5,3,0,3201534,172228386,6926677119207185063,1361196635.858598,10328,9332,8968,nan,0.000000
2,5,3,0,3201534,172228386,6926677119207187684,1361196635.858598,10300,9616,8832,nan,0.000000
2,5,3,0,3201534,172228386,6926677119207190305,1361196635.858598,10200,9616,8660,nan,0.000000
2,5,4,0,3201534,172228417,6926677119207192926,1361196635.860046,10260,9592,8652,nan,0.000000
2,5,4,0,3201534,172228417,6926677119207195547,1361196635.860046,10344,9608,8880,nan,0.000000
2,5,4,0,3201534,172228417,6926677119207198168,1361196635.860046,10228,9548,8764,nan,0.000000
2,5,4,0,3201534,172228417,6926677119207200789,1361196635.860046,10180,9520,8788,nan,0.000000
2,5,4,0,3201534,172228417,6926677119207203410,1361196635.860046,10268,9628,8912,nan,0.000000
2,5,5,0,3201534,172228450,6926677119207206031,1361196638.334107,10216,9548,8732,nan,0.000000
2,5,5,0,3201534,172228450,6926677119207208652,1361196638.334107,10200,9548,8848,nan,0.000000
2,5,5,0,3201534,172228450,6926677119207211273,1361196638.334107,10300,9632,8804,nan,0.000000
2,5,5,0,3201534,172228450,6926677119207213894,1361196638.334107,10188,9512,8772,nan,0.000000
2,5,5,0,3201534,172228450,6926677119207216515,1361196638.334107,10232,9652,8580,nan,0.000000
1,5,6,0,3282790,172309518,-8060796657615823838,1361196638.334642,10348,9552,8724,nan,0.000000
1,5,6,0,3282790,172309518,-8060796657615821217,1361196638.334642,10320,9656,8656,nan,0.000000
2,5,7,0,3282790,172309550,-8060796657615818596,1361196638.336088,10388,9624,8640,nan,0.000000
2,5,7,0,3282790,172309550,-8060796657615815975,1361196638.336088,10348,9508,8600,nan,0.000000
2,5,7,0,3282790,172309550,-8060796657615813354,1361196638.336088,10348,9560,8800,nan,0.000000
2,5,7,0,3282790,172309550,-8060796657615810733,1361196638.336088,10320,9780,8556,nan,0.000000
2,5,7,0,3282790,172309550,-8060796657615808112,1361196638.336088,10488,9420,8604,nan,0.000000
2,5,8,0,3282790,172309582,-8060796657615805491,1361196638.336863,10504,9224,8720,nan,0.000000
2,5,8,0,3282790,172309582,-8060796657615802870,1361196638.336863,10512,9416,8504,nan,0.000000
2,5,8,0,3282790,172309582,-8060796657615800249,1361196638.336863,10544,9528,8496,nan,0.000000
2,5,8,0,3282790,172309582,-8060796657615797628,1361196638.336863,10592,9608,8512,nan,0.000000
2,5,8,0,3282790,172309582,-8060796657615795007,1361196638.336863,10484,9632,8356,nan,0.000000
2,5,9,0,3282790,172309614,-8060796657615792386,1361196638.337986,10572,9532,8200,nan,0.000000
2,5,9,0,3282790,172309614,-8060796657615789765,1361196638.337986,10612,9524,8176,nan,0.000000
2,5,9,0,3282790,172309614,-8060796657615787144,1361196638.337986,10780,9448,7992,nan,0.000000
2,5,9,0,3282790,172309614,-8060796657615784523,1361196638.337986,10836,9304,8212,nan,0.000000
2,5,9,0,3282790,172309614,-8060796657615781902,1361196638.337986,11020,9356,8252,nan,0.000000
2,5,10,0,3282790,172309646,-8060796657615779281,1361196638.338438,10828,9272,8168,nan,0.000000
2,5,10,0,3282790,172309646,-8060796657615776660,1361196638.338438,10912,9248,8252,nan,0.000000
2,5,10,0,3282790,172309646,-8060796657615774039,1361196638.338438,10824,9300,8292,nan,0.000000
2,5,10,0,3282790,172309646,-8060796657615771418,1361196638.338438,10760,9240,8268,nan,0.000000
2,5,10,0,3282790,172309646,-8060796657615768797,1361196638.338438,10740,9292,8392,nan,0.000000
2,5,11,0,3282790,172309678,-8060796657615766176,1361196638.339971,10732,9292,8440,nan,0.000000
2,5,11,0,3282790,172309678,-8060796657615763555,1361196638.339971,10692,9312,8496,nan,0.000000
2,5,11,0,3282790,172309678,-8060796657615760934,1361196638.339971,10596,9320,8644,nan,0.000000
2,5,11,0,3282790,172309678,-8060796657615758313,1361196638.339971,10708,9204,8528,nan,0.000000
2,5,11,0,3282790,172309678,-8060796657615755692,1361196638.339971,10580,9340,8740,nan,0.000000
2,5,12,0,3282790,172309710,-8060796657615753071,1361196640.814060,10560,9164,8556,nan,0.000000
2,5,12,0,3282790,172309710,-8060796657615750450,1361196640.814060,10632,9164,8672,nan,0.000000
2,5,12,0,3282790,172309710,-8060796657615747829,1361196640.814060,10588,9348,8692,nan,0.000000
2,5,12,0,3282790,172309710,-8060796657615745208,1361196640.814060,10544,9236,8684,nan,0.000000
2,5,12,0,3282790,172309710,-8060796657615742587,1361196640.814060,10568,9192,8712,nan,0.000000
1,5,13,0,3364047,172390780,-2296329882001904607,1361196640.815310,10568,9312,8668,nan,0.000000
1,5,13,0,3364047,172390780,-2296329882001901986,1361196640.815310,10620,9252,8568,nan,0.000000
2,5,14,0,3364047,172390811,-2296329882001899365,1361196640.815874,10660,9364,8596,nan,0.000000
2,5,14,0,3364047,172390811,-2296329882001896744,1361196640.815874,10628,9236,8488,nan,0.000000
2,5,14,0,3364047,172390811,-2296329882001894123,1361196640.815874,10668,9260,8564,nan,0.000000
2,5,14,0,3364047,172390811,-2296329882001891502,1361196640.815874,10648,9344,8396,nan,0.000000
2,5,14,0,3364047,172390811,-2296329882001888881,1361196640.815874,10712,9280,8412,nan,0.000000
2,5,15,0,3364047,172390844,-2296329882001886260,1361196640.816834,10792,9244,8324,nan,0.000000
2,5,15,0,3364047,172390844,-2296329882001883639,1361196640.816834,10764,9364,8360,nan,0.000000
2,5,15,0,3364047,172390844,-2296329882001881018,1361196640.816834,10796,9180,8340,nan,0.000000
2,5,15,0,3364047,172390844,-2296329882001878397,1361196640.816834,10824,9236,8248,nan,0.000000
2,5,15,0,3364047,172390844,-2296329882001875776,1361196640.816834,10836,9292,8192,nan,0.000000
2,5,0,0,3364047,172390875,-2296329882001873155,1361196640.817763,10896,9376,8236,nan,0.000000
2,5,0,0,3364047,172390875,-2296329882001870534,1361196640.817763,10824,9644,8188,nan,0.000000
2,5,0,0,3364047,172390875,-2296329882001867913,1361196640.817763,10880,9724,8128,nan,0.000000
2,5,0,0,3364047,172390875,-2296329882001865292,1361196640.817763,10912,10164,7784,nan,0.000000
2,5,0,0,3364047,172390875,-2296329882001862671,1361196640.817763,10948,9996,7664,nan,0.000000
2,5,1,0,3364047,172390908,-2296329882001860050,1361196640.818762,10968,9544,7860,nan,0.000000
2,5,1,0,3364047,172390908,-2296329882001857429,1361196640.818762,10824,8736,7796,nan,0.000000
2,5,1,0,3364047,172390908,-2296329882001854808,1361196640.818762,11532,7452,8580,nan,0.000000
2,5,1,0,3364047,172390908,-2296329882001852187,1361196640.818762,12192,6684,9332,nan,0.000000
2,5,1,0,3364047,172390908,-2296329882001849566,1361196640.818762,12756,6488,8560,nan,0.000000
2,5,2,0,3364047,172390939,-2296329882001846945,1361196640.819796,13612,4060,9400,nan,0.000000
2,5,2,0,3364047,172390939,-2296329882001844324,1361196640.819796,14528,3312,8580,nan,0.000000
2,5,2,0,3364047,172390939,-2296329882001841703,1361196640.819796,14240,2972,8604,nan,0.000000
2,5,2,0,3364047,172390939,-2296329882001839082,1361196640.819796,13796,1428,9244,nan,0.000000
2,5,2,0,3364047,172390939,-2296329882001836461,1361196640.819796,12788,396,9680,nan,0.000000
2,5,3,0,3364047,172390972,-2296329882001833840,1361196643.323948,12504,760,9336,nan,0.000000
2,5,3,0,3364047,172390972,-2296329882001831219,1361196643.323948,15656,1936,6828,nan,0.000000
2,5,3,0,3364047,172390972,-2296329882001828598,1361196643.323948,17364,176,1648,nan,0.000000
2,5,3,0,3364047,172390972,-2296329882001825977,1361196643.323948,19728,3168,4012,nan,0.000000
2,5,3,0,3364047,172390972,-2296329882001823356,1361196643.323948,12040,4336,16,nan,0.000000
1,5,4,0,3445303,172473072,-6045361189377181660,1361196643.325748,17028,-3128,856,nan,0.000000
1,5,4,0,3445303,172473072,-6045361189377179039,1361196643.325748,15252,-1228,-856,nan,0.000000
2,5,5,0,3445303,172473104,-6045361189377176418,1361196643.326195,14832,-1828,-1836,nan,0.000000
2,5,5,0,3445303,172473104,-6045361189377173797,1361196643.326195,16900,-4172,-3484,nan,0.000000
2,5,5,0,3445303,172473104,-6045361189377171176,1361196643.326195,21648,-3472,-2484,nan,0.000000
2,5,5,0,3445303,172473104,-6045361189377168555,1361196643.326195,16780,1172,4448,nan,0.000000
2,5,5,0,3445303,172473104,-6045361189377165934,1361196643.326195,15600,1444,2152,nan,0.000000
2,5,6,0,3445303,172473136,-6045361189377163313,1361196643.331623,15712,1148,240,nan,0.000000
2,5,6,0,3445303,172473136,-6045361189377160692,1361196643.331623,15628,-2016,1980,nan,0.000000
2,5,6,0,3445303,172473136,-6045361189377158071,1361196643.331623,15480,-2756,1368,nan,0.000000
2,5,6,0,3445303,172473136,-6045361189377155450,1361196643.331623,14604,-1372,1208,nan,0.000000
2,5,6,0,3445303,172473136,-6045361189377152829,1361196643.331623,13152,404,1304,nan,0.000000
2,5,7,0,3445303,172473168,-6045361189377150208,1361196643.333409,20220,-4604,612,nan,0.000000
2,5,7,0,3445303,172473168,-6045361189377147587,1361196643.333409,16692,-452,-184,nan,0.000000
2,5,7,0,3445303,172473168,-6045361189377144966,1361196643.333409,14636,1796,-3256,nan,0.000000
2,5,7,0,3445303,172473168,-6045361189377142345,1361196643.333409,16004,-2416,-1424,nan,0.000000
2,5,7,0,3445303,172473168,-6045361189377139724,1361196643.333409,15848,-1776,-2644,nan,0.000000
2,5,8,0,3445303,172473200,-6045361189377137103,1361196643.337390,15020,-372,-3748,nan,0.000000
2,5,8,0,3445303,172473200,-6045361189377134482,1361196643.337390,15016,116,-4504,nan,0.000000
2,5,8,0,3445303,172473200,-6045361189377131861,1361196643.337390,15784,1520,-5268,nan,0.000000
2,5,8,0,3445303,172473200,-6045361189377129240,1361196643.337390,20712,1108,-3612,nan,0.000000
2,5,8,0,3445303,172473200,-6045361189377126619,1361196643.337390,18224,-1620,2632,nan,0.000000
2,5,9,0,3445303,172473232,-6045361189377123998,1361196643.339577,17940,-1264,1544,nan,0.000000
2,5,9,0,3445303,172473232,-6045361189377121377,1361196643.339577,11064,-3340,1272,nan,0.000000
2,5,9,0,3445303,172473232,-6045361189377118756,1361196643.339577,14100,-1816,296,nan,0.000000
2,5,9,0,3445303,172473232,-6045361189377116135,1361196643.339577,15320,-3948,-132,nan,0.000000
2,5,9,0,3445303,172473232,-6045361189377113514,1361196643.339577,13668,-4076,-1876,nan,0.000000
2,5,10,0,3445303,172473264,-6045361189377110893,1361196645.774092,14544,-3000,-1032,nan,0.000000
2,5,10,0,3445303,172473264,-6045361189377108272,1361196645.774092,14916,-4712,-2612,nan,0.000000
2,5,10,0,3445303,172473264,-6045361189377105651,1361196645.774092,19228,1720,956,nan,0.000000
2,5,10,0,3445303,172473264,-6045361189377103030,1361196645.774092,21752,11436,-2020,nan,0.000000
2,5,10,0,3445303,172473264,-6045361189377100409,1361196645.774092,19856,4960,1728,nan,0.000000
1,5,11,0,3526558,172553300,-3677865375858755333,1361196645.779468,13236,4080,-520,nan,0.000000
1,5,11,0,3526558,172553300,-3677865375858752712,1361196645.779468,12456,2784,-1064,nan,0.000000
2,5,12,0,3526558,172553332,-3677865375858750091,1361196645.781186,13432,1456,-1748,nan,0.000000
2,5,12,0,3526558,172553332,-3677865375858747470,1361196645.781186,15088,1096,-2252,nan,0.000000
2,5,12,0,3526558,172553332,-3677865375858744849,1361196645.781186,17656,-392,-4840,nan,0.000000
2,5,12,0,3526558,172553332,-3677865375858742228,1361196645.781186,20744,-1788,-244,nan,0.000000
2,5,12,0,3526558,172553332,-3677865375858739607,1361196645.781186,18312,-252,4424,nan,0.000000
2,5,13,0,3526558,172553364,-3677865375858736986,1361196645.783582,16316,-864,-268,nan,0.000000
2,5,13,0,3526558,172553364,-3677865375858734365,1361196645.783582,10204,-1812,856,nan,0.000000
2,5,13,0,3526558,172553364,-3677865375858731744,1361196645.783582,15368,-3624,992,nan,0.000000
2,5,13,0,3526558,172553364,-3677865375858729123,1361196645.783582,16264,-6380,-296,nan,0.000000
2,5,13,0,3526558,172553364,-3677865375858726502,1361196645.783582,14244,-4164,24,nan,0.000000
2,5,14,0,3526558,172553395,-3677865375858723881,1361196645.787300,20280,-1100,1176,nan,0.000000
2,5,14,0,3526558,172553395,-3677865375858721260,1361196645.787300,13600,-3672,-936,nan,0.000000
2,5,14,0,3526558,172553395,-3677865375858718639,1361196645.787300,17956,-3816,-600,nan,0.000000
2,5,14,0,3526558,172553395,-3677865375858716018,1361196645.787300,14136,-2064,-1396,nan,0.000000
2,5,14,0,3526558,172553395,-3677865375858713397,1361196645.787300,15456,-3192,-796,nan,0.000000
2,5,15,0,3526558,172553428,-3677865375858710776,1361196645.789561,15976,-2976,-1600,nan,0.000000
2,5,15,0,3526558,172553428,-3677865375858708155,1361196645.789561,14304,-3404,-580,nan,0.000000
2,5,15,0,3526558,172553428,-3677865375858705534,1361196645.789561,16292,-3284,1024,nan,0.000000
2,5,15,0,3526558,172553428,-3677865375858702913,1361196645.789561,14860,-1952,3764,nan,0.000000
2,5,15,0,3526558,172553428,-3677865375858700292,1361196645.789561,17896,-3312,3268,nan,0.000000
2,5,0,0,3526558,172553459,-3677865375858697671,1361196645.792927,16264,-1412,856,nan,0.000000
2,5,0,0,3526558,172553459,-3677865375858695050,1361196645.792927,15284,-1944,1660,nan,0.000000
2,5,0,0,3526558,172553459,-3677865375858692429,1361196645.792927,15592,-4972,1584,nan,0.000000
2,5,0,0,3526558,172553459,-3677865375858689808,1361196645.792927,14308,-6552,2188,nan,0.000000
2,5,0,0,3526558,172553459,-3677865375858687187,1361196645.792927,14276,-5916,2464,nan,0.000000
2,5,1,0,3526558,172553492,-3677865375858684566,1361196648.254062,16880,-2916,1880,nan,0.000000
2,5,1,0,3526558,172553492,-3677865375858681945,1361196648.254062,19724,-268,-1900,nan,0.000000
2,5,1,0,3526558,172553492,-3677865375858679324,1361196648.254062,17308,-2312,-1068,nan,0.000000
2,5,1,0,3526558,172553492,-3677865375858676703,1361196648.254062,13672,1028,-2612,nan,0.000000
2,5,1,0,3526558,172553492,-3677865375858674082,1361196648.254062,14908,-2604,-1840,nan,0.000000
1,5,2,0,3607814,172634558,-7712144989906708473,1361196648.255353,14508,-2900,-3048,nan,0.000000
1,5,2,0,3607814,172634558,-7712144989906705852,1361196648.255353,15320,-2428,-3476,nan,0.000000
2,5,3,0,3607814,172634590,-7712144989906703231,1361196648.255884,18596,-3028,-5400,nan,0.000000
2,5,3,0,3607814,172634590,-7712144989906700610,1361196648.255884,20360,-3348,-2720,nan,0.000000
2,5,3,0,3607814,172634590,-7712144989906697989,1361196648.255884,14656,-1216,2808,nan,0.000000
2,5,3,0,3607814,172634590,-7712144989906695368,1361196648.255884,16668,-1056,-460,nan,0.000000
2,5,3,0,3607814,172634590,-7712144989906692747,1361196648.255884,13908,388,-1676,nan,0.000000
2,5,4,0,3607814,172634622,-7712144989906690126,1361196648.256879,13456,-4484,-1008,nan,0.000000
2,5,4,0,3607814,172634622,-7712144989906687505,1361196648.256879,13636,-4132,-2492,nan,0.000000
2,5,4,0,3607814,172634622,-7712144989906684884,1361196648.256879,13548,-3760,-2620,nan,0.000000
2,5,4,0,3607814,172634622,-7712144989906682263,1361196648.256879,17380,-5228,-3320,nan,0.000000
2,5,4,0,3607814,172634622,-7712144989906679642,1361196648.256879,21620,-4388,-4384,nan,0.000000
2,5,5,0,3607814,172634654,-7712144989906677021,1361196648.257711,16684,3676,1392,nan,0.000000
2,5,5,0,3607814,172634654,-7712144989906674400,1361196648.257711,15940,-5376,-1300,nan,0.000000
2,5,5,0,3607814,172634654,-7712144989906671779,1361196648.257711,14044,-3440,-1072,nan,0.000000
2,5,5,0,3607814,172634654,-7712144989906669158,1361196648.257711,14024,-1976,-2688,nan,0.000000
2,5,5,0,3607814,172634654,-7712144989906666537,1361196648.257711,14748,-2480,-2580,nan,0.000000
2,5,6,0,3607814,172634686,-7712144989906663916,1361196648.258477,14520,-2360,-3304,nan,0.000000
2,5,6,0,3607814,172634686,-7712144989906661295,1361196648.258477,14800,-5760,-2916,nan,0.000000
2,5,6,0,3607814,172634686,-7712144989906658674,1361196648.258477,22012,-4388,-2560,nan,0.000000
2,5,6,0,3607814,172634686,-7712144989906656053,1361196648.258477,13572,-20,1440,nan,0.000000
2,5,6,0,3607814,172634686,-7712144989906653432,1361196648.258477,18248,-612,-1964,nan,0.000000
2,5,7,0,3607814,172634718,-7712144989906650811,1361196648.259672,15060,-1912,-472,nan,0.000000
2,5,7,0,3607814,172634718,-7712144989906648190,1361196648.259672,15096,-1920,60,nan,0.000000
2,5,7,0,3607814,172634718,-7712144989906645569,1361196648.259672,15316,-4952,-204,nan,0.000000
2,5,7,0,3607814,172634718,-7712144989906642948,1361196648.259672,15436,-4016,-1228,nan,0.000000
2,5,7,0,3607814,172634718,-7712144989906640327,1361196648.259672,15820,-3192,-640,nan,0.000000
2,5,8,0,3607814,172634750,-7712144989906637706,1361196650.734010,14424,-4132,1156,nan,0.000000
2,5,8,0,3607814,172634750,-7712144989906635085,1361196650.734010,16288,-644,-2524,nan,0.000000
2,5,8,0,3607814,172634750,-7712144989906632464,1361196650.734010,16160,-4060,-2232,nan,0.000000
2,5,8,0,3607814,172634750,-7712144989906629843,1361196650.734010,17036,-2500,-2596,nan,0.000000
2,5,8,0,3607814,172634750,-7712144989906627222,1361196650.734010,14764,-1924,-1292,nan,0.000000
1,5,9,0,3689070,172715818,2663453658393314308,1361196650.735207,15732,-3352,-2556,nan,0.000000
1,5,9,0,3689070,172715818,2663453658393316929,1361196650.735207,15108,-1148,-2660,nan,0.000000
2,5,10,0,3689070,172715850,2663453658393319550,1361196650.736046,15460,-1228,-3112,nan,0.000000
2,5,10,0,3689070,172715850,2663453658393322171,1361196650.736046,15780,-412,-3648,nan,0.000000
2,5,10,0,3689070,172715850,2663453658393324792,1361196650.736046,18516,-856,-3224,nan,0.000000
2,5,10,0,3689070,172715850,2663453658393327413,1361196650.736046,18456,4,316,nan,0.000000
2,5,10,0,3689070,172715850,2663453658393330034,1361196650.736046,13852,-2452,2392,nan,0.000000
2,5,11,0,3689070,172715882,2663453658393332655,1361196650.736905,16992,-1688,232,nan,0.000000
2,5,11,0,3689070,172715882,2663453658393335276,1361196650.736905,13992,-4984,76,nan,0.000000
2,5,11,0,3689070,172715882,2663453658393337897,1361196650.736905,14272,-4076,-1064,nan,0.000000
2,5,11,0,3689070,172715882,2663453658393340518,1361196650.736905,14048,-5544,-2672,nan,0.000000
2,5,11,0,3689070,172715882,2663453658393343139,1361196650.736905,14320,-4168,-2368,nan,0.000000
2,5,12,0,3689070,172715914,2663453658393345760,1361196650.737784,16708,-4956,-2420,nan,0.000000
2,5,12,0,3689070,172715914,2663453658393348381,1361196650.737784,19908,-4848,-4936,nan,0.000000
2,5,12,0,3689070,172715914,2663453658393351002,1361196650.737784,15072,640,1832,nan,0.000000
2,5,12,0,3689070,172715914,2663453658393353623,1361196650.737784,19060,-3400,-2776,nan,0.000000
2,5,12,0,3689070,172715914,2663453658393356244,1361196650.737784,13484,-6108,56,nan,0.000000
2,5,13,0,3689070,172715946,2663453658393358865,1361196650.738550,12788,-884,-3620,nan,0.000000
2,5,13,0,3689070,172715946,2663453658393361486,1361196650.738550,14216,-2660,-3720,nan,0.000000
2,5,13,0,3689070,172715946,2663453658393364107,1361196650.738550,13860,-3820,-3948,nan,0.000000
2,5,13,0,3689070,172715946,2663453658393366728,1361196650.738550,15228,-3464,-4216,nan,0.000000
2,5,13,0,3689070,172715946,2663453658393369349,1361196650.738550,17688,-6008,-5864,nan,0.000000
2,5,14,0,3689070,172715978,2663453658393371970,1361196650.739614,19900,-2572,-824,nan,0.000000
2,5,14,0,3689070,172715978,2663453658393374591,1361196650.739614,14324,-1380,1156,nan,0.000000
2,5,14,0,3689070,172715978,2663453658393377212,1361196650.739614,16748,740,-2936,nan,0.000000
2,5,14,0,3689070,172715978,2663453658393379833,1361196650.739614,13936,-2612,-1696,nan,0.000000
2,5,14,0,3689070,172715978,2663453658393382454,1361196650.739614,13500,-5040,-1112,nan,0.000000
2,5,15,0,3689070,172716010,2663453658393385075,1361196653.235915,14908,-4920,-2180,nan,0.000000
2,5,15,0,3689070,172716010,2663453658393387696,1361196653.235915,14584,-3348,-1108,nan,0.000000
2,5,15,0,3689070,172716010,2663453658393390317,1361196653.235915,22816,-2420,-3132,nan,0.000000
2,5,15,0,3689070,172716010,2663453658393392938,1361196653.235915,10684,-2524,2028,nan,0.000000
2,5,15,0,3689070,172716010,2663453658393395559,1361196653.235915,19416,-2796,-1788,nan,0.000000
1,5,0,0,3770327,172797857,-5981927151740879625,1361196653.237649,14888,-1344,-252,nan,0.000000
1,5,0,0,3770327,172797857,-5981927151740877004,1361196653.237649,15592,-2132,-852,nan,0.000000
2,5,1,0,3770327,172797889,-5981927151740874383,1361196653.238239,16276,-1360,-284,nan,0.000000
2,5,1,0,3770327,172797889,-5981927151740871762,1361196653.238239,16080,-2504,276,nan,0.000000
2,5,1,0,3770327,172797889,-5981927151740869141,1361196653.238239,15364,-4128,1672,nan,0.000000
2,5,1,0,3770327,172797889,-5981927151740866520,1361196653.238239,14844,-2648,1396,nan,0.000000
2,5,1,0,3770327,172797889,-5981927151740863899,1361196653.238239,17592,-3472,360,nan,0.000000
2,5,2,0,3770327,172797920,-5981927151740861278,1361196653.239547,16184,-2860,680,nan,0.000000
2,5,2,0,3770327,172797920,-5981927151740858657,1361196653.239547,15512,-2420,836,nan,0.000000
2,5,2,0,3770327,172797920,-5981927151740856036,1361196653.239547,14972,-5236,1456,nan,0.000000
2,5,2,0,3770327,172797920,-5981927151740853415,1361196653.239547,14872,-5536,2052,nan,0.000000
2,5,2,0,3770327,172797920,-5981927151740850794,1361196653.239547,13484,-6340,1532,nan,0.000000
2,5,3,0,3770327,172797953,-5981927151740848173,1361196653.240366,18228,-2276,1044,nan,0.000000
2,5,3,0,3770327,172797953,-5981927151740845552,1361196653.240366,17664,300,-3600,nan,0.000000
2,5,3,0,3770327,172797953,-5981927151740842931,1361196653.240366,17900,-2500,416,nan,0.000000
2,5,3,0,3770327,172797953,-5981927151740840310,1361196653.240366,13168,-384,-3752,nan,0.000000
2,5,3,0,3770327,172797953,-5981927151740837689,1361196653.240366,15212,-2712,-1716,nan,0.000000
2,5,4,0,3770327,172797984,-5981927151740835068,1361196653.241597,15124,-2948,-2612,nan,0.000000
2,5,4,0,3770327,172797984,-5981927151740832447,1361196653.241597,14360,-2316,-2936,nan,0.000000
2,5,4,0,3770327,172797984,-5981927151740829826,1361196653.241597,15692,-3384,-2976,nan,0.000000
2,5,4,0,3770327,172797984,-5981927151740827205,1361196653.241597,17260,-6160,-4288,nan,0.000000
2,5,4,0,3770327,172797984,-5981927151740824584,1361196653.241597,20200,-1740,-1072,nan,0.000000
2,5,5,0,3770327,172798017,-5981927151740821963,1361196653.242374,15752,192,3688,nan,0.000000
2,5,5,0,3770327,172798017,-5981927151740819342,1361196653.242374,16124,120,-548,nan,0.000000
2,5,5,0,3770327,172798017,-5981927151740816721,1361196653.242374,14620,-1080,-56,nan,0.000000
2,5,5,0,3770327,172798017,-5981927151740814100,1361196653.242374,14544,-3604,-832,nan,0.000000
2,5,5,0,3770327,172798017,-5981927151740811479,1361196653.242374,14172,-4484,-1540,nan,0.000000
2,5,6,0,3770327,172798048,-5981927151740808858,1361196655.693938,13744,-5184,-2468,nan,0.000000
2,5,6,0,3770327,172798048,-5981927151740806237,1361196655.693938,14012,-4756,-2360,nan,0.000000
2,5,6,0,3770327,172798048,-5981927151740803616,1361196655.693938,16356,-4464,-3660,nan,0.000000
2,5,6,0,3770327,172798048,-5981927151740800995,1361196655.693938,20972,-3788,-3144,nan,0.000000
2,5,6,0,3770327,172798048,-5981927151740798374,1361196655.693938,16148,2480,900,nan,0.000000
1,5,7,0,3851585,172878344,-3965862653532414730,1361196655.695081,14036,-3916,-1948,nan,0.000000
1,5,7,0,3851585,172878344,-3965862653532412109,1361196655.695081,14096,-1780,-2392,nan,0.000000
2,5,8,0,3851585,172878375,-3965862653532409488,1361196655.696632,15168,-2528,-3668,nan,0.000000
2,5,8,0,3851585,172878375,-3965862653532406867,1361196655.696632,14656,-2096,-3456,nan,0.000000
2,5,8,0,3851585,172878375,-3965862653532404246,1361196655.696632,14740,-2712,-4168,nan,0.000000
2,5,8,0,3851585,172878375,-3965862653532401625,1361196655.696632,16752,-4128,-4152,nan,0.000000
2,5,8,0,3851585,172878375,-3965862653532399004,1361196655.696632,21704,-1380,-2344,nan,0.000000
2,5,9,0,3851585,172878408,-3965862653532396383,1361196655.699458,10584,-16,-336,nan,0.000000
2,5,9,0,3851585,172878408,-3965862653532393762,1361196655.699458,17804,-720,-596,nan,0.000000
2,5,9,0,3851585,172878408,-3965862653532391141,1361196655.699458,17968,-152,-1520,nan,0.000000
2,5,9,0,3851585,172878408,-3965862653532388520,1361196655.699458,15256,-1752,-836,nan,0.000000
2,5,9,0,3851585,172878408,-3965862653532385899,1361196655.699458,15232,-3964,-1104,nan,0.000000
2,5,10,0,3851585,172878439,-3965862653532383278,1361196655.703591,15340,-3396,-2168,nan,0.000000
2,5,10,0,3851585,172878439,-3965862653532380657,1361196655.703591,14200,-3648,-1500,nan,0.000000
2,5,10,0,3851585,172878439,-3965862653532378036,1361196655.703591,19368,-724,-2464,nan,0.000000
2,5,10,0,3851585,172878439,-3965862653532375415,1361196655.703591,14464,1376,-2884,nan,0.000000
2,5,10,0,3851585,172878439,-3965862653532372794,1361196655.703591,15860,-1452,-2220,nan,0.000000
2,5,11,0,3851585,172878472,-3965862653532370173,1361196655.707955,15592,828,-3920,nan,0.000000
2,5,11,0,3851585,172878472,-3965862653532367552,1361196655.707955,15184,-164,-3108,nan,0.000000
2,5,11,0,3851585,172878472,-3965862653532364931,1361196655.707955,15624,-476,-3368,nan,0.000000
2,5,11,0,3851585,172878472,-3965862653532362310,1361196655.707955,15356,1004,-4128,nan,0.000000
2,5,11,0,3851585,172878472,-3965862653532359689,1361196655.707955,15504,564,-3860,nan,0.000000
2,5,12,0,3851585,172878503,-3965862653532357068,1361196655.711228,15424,740,-4588,nan,0.000000
2,5,12,0,3851585,172878503,-3965862653532354447,1361196655.711228,16032,648,-4912,nan,0.000000
2,5,12,0,3851585,172878503,-3965862653532351826,1361196655.711228,18728,1328,-4912,nan,0.000000
2,5,12,0,3851585,172878503,-3965862653532349205,1361196655.711228,15172,-584,336,nan,0.000000
2,5,12,0,3851585,172878503,-3965862653532346584,1361196655.711228,16676,-2604,440,nan,0.000000
2,5,13,0,3851585,172878536,-3965862653532343963,1361196658.173894,15612,-1572,-212,nan,0.000000
2,5,13,0,3851585,172878536,-3965862653532341342,1361196658.173894,14144,-5180,-1068,nan,0.000000
2,5,13,0,3851585,172878536,-3965862653532338721,1361196658.173894,14308,-4196,-2008,nan,0.000000
2,5,13,0,3851585,172878536,-3965862653532336100,1361196658.173894,14288,-4204,-2960,nan,0.000000
2,5,13,0,3851585,172878536,-3965862653532333479,1361196658.173894,15028,-3832,-2368,nan,0.000000
1,5,14,0,3932842,172959608,-3099667403840738049,1361196658.175096,21300,-3108,-2104,nan,0.000000
1,5,14,0,3932842,172959608,-3099667403840735428,1361196658.175096,15292,2152,2200,nan,0.000000
2,5,15,0,3932842,172959640,-3099667403840732807,1361196658.175640,15168,-6600,676,nan,0.000000
2,5,15,0,3932842,172959640,-3099667403840730186,1361196658.175640,15008,-2844,-1180,nan,0.000000
2,5,15,0,3932842,172959640,-3099667403840727565,1361196658.175640,13424,-1760,-2020,nan,0.000000
2,5,15,0,3932842,172959640,-3099667403840724944,1361196658.175640,13964,-3228,-2568,nan,0.000000
2,5,15,0,3932842,172959640,-3099667403840722323,1361196658.175640,14404,-2828,-2456,nan,0.000000
2,5,0,0,3932842,172959672,-3099667403840719702,1361196658.176595,17208,-3552,-3588,nan,0.000000
2,5,0,0,3932842,172959672,-3099667403840717081,1361196658.176595,20928,-5816,-1780,nan,0.000000
2,5,0,0,3932842,172959672,-3099667403840714460,1361196658.176595,14844,-1084,3092,nan,0.000000
2,5,0,0,3932842,172959672,-3099667403840711839,1361196658.176595,17000,-688,-292,nan,0.000000
2,5,0,0,3932842,172959672,-3099667403840709218,1361196658.176595,14672,-672,-1604,nan,0.000000
2,5,1,0,3932842,172959704,-3099667403840706597,1361196658.177582,13016,-5012,-704,nan,0.000000
2,5,1,0,3932842,172959704,-3099667403840703976,1361196658.177582,14768,-4432,-1396,nan,0.000000
2,5,1,0,3932842,172959704,-3099667403840701355,1361196658.177582,14940,-3816,-1488,nan,0.000000
2,5,1,0,3932842,172959704,-3099667403840698734,1361196658.177582,17024,-3596,-2408,nan,0.000000
2,5,1,0,3932842,172959704,-3099667403840696113,1361196658.177582,19792,-2048,-444,nan,0.000000
2,5,2,0,3932842,172959736,-3099667403840693492,1361196658.178639,12336,-1572,352,nan,0.000000
2,5,2,0,3932842,172959736,-3099667403840690871,1361196658.178639,18380,-3316,-3416,nan,0.000000
2,5,2,0,3932842,172959736,-3099667403840688250,1361196658.178639,16064,-4128,-3328,nan,0.000000
2,5,2,0,3932842,172959736,-3099667403840685629,1361196658.178639,13288,-2732,152,nan,0.000000
2,5,2,0,3932842,172959736,-3099667403840683008,1361196658.178639,16600,-2464,-2296,nan,0.000000
2,5,3,0,3932842,172959768,-3099667403840680387,1361196658.179494,15740,-2836,-2504,nan,0.000000
2,5,3,0,3932842,172959768,-3099667403840677766,1361196658.179494,15548,-2292,-1300,nan,0.000000
2,5,3,0,3932842,172959768,-3099667403840675145,1361196658.179494,15628,-2508,-1392,nan,0.000000
2,5,3,0,3932842,172959768,-3099667403840672524,1361196658.179494,17104,-2576,2024,nan,0.000000
2,5,3,0,3932842,172959768,-3099667403840669903,1361196658.179494,14684,-1092,900,nan,0.000000
2,5,4,0,3932842,172959800,-3099667403840667282,1361196660.653581,15896,-5020,1104,nan,0.000000
2,5,4,0,3932842,172959800,-3099667403840664661,1361196660.653581,15156,-3992,2420,nan,0.000000
2,5,4,0,3932842,172959800,-3099667403840662040,1361196660.653581,16940,-2652,2408,nan,0.000000
2,5,4,0,3932842,172959800,-3099667403840659419,1361196660.653581,15936,-4016,1996,nan,0.000000
2,5,4,0,3932842,172959800,-3099667403840656798,1361196660.653581,14512,-5080,2000,nan,0.000000
1,5,5,0,4014098,173040864,8361329564067778564,1361196660.654684,14744,-4912,1880,nan,0.000000
1,5,5,0,4014098,173040864,8361329564067781185,1361196660.654684,15488,-4184,1684,nan,0.000000
2,5,6,0,4014098,173040896,8361329564067783806,1361196660.655503,17700,-724,-2528,nan,0.000000
2,5,6,0,4014098,173040896,8361329564067786427,1361196660.655503,17944,-3380,-244,nan,0.000000
2,5,6,0,4014098,173040896,8361329564067789048,1361196660.655503,15828,552,-1940,nan,0.000000
2,5,6,0,4014098,173040896,8361329564067791669,1361196660.655503,14028,-1888,-2168,nan,0.000000
2,5,6,0,4014098,173040896,8361329564067794290,1361196660.655503,15236,-2856,-2156,nan,0.000000
2,5,7,0,4014098,173040928,8361329564067796911,1361196660.656165,14764,-3016,-2572,nan,0.000000
2,5,7,0,4014098,173040928,8361329564067799532,1361196660.656165,15104,-2728,-2484,nan,0.000000
2,5,7,0,4014098,173040928,8361329564067802153,1361196660.656165,17280,-3516,-3268,nan,0.000000
2,5,7,0,4014098,173040928,8361329564067804774,1361196660.656165,20236,-4232,-3892,nan,0.000000
2,5,7,0,4014098,173040928,8361329564067807395,1361196660.656165,17320,456,2556,nan,0.000000
2,5,8,0,4014098,173040960,8361329564067810016,1361196660.657495,15280,-132,1548,nan,0.000000
2,5,8,0,4014098,173040960,8361329564067812637,1361196660.657495,14948,284,-1080,nan,0.000000
2,5,8,0,4014098,173040960,8361329564067815258,1361196660.657495,14508,-4260,-856,nan,0.000000
2,5,8,0,4014098,173040960,8361329564067817879,1361196660.657495,14140,-4388,-1692,nan,0.000000
2,5,8,0,4014098,173040960,8361329564067820500,1361196660.657495,13200,-4760,-2736,nan,0.000000
2,5,9,0,4014098,173040992,8361329564067823121,1361196660.658312,13956,-5416,-2436,nan,0.000000
2,5,9,0,4014098,173040992,8361329564067825742,1361196660.658312,16360,-4932,-4332,nan,0.000000
2,5,9,0,4014098,173040992,8361329564067828363,1361196660.658312,21376,-3556,-2812,nan,0.000000
2,5,9,0,4014098,173040992,8361329564067830984,1361196660.658312,16032,1584,2072,nan,0.000000
2,5,9,0,4014098,173040992,8361329564067833605,1361196660.658312,16444,-5332,-1204,nan,0.000000
2,5,10,0,4014098,173041024,8361329564067836226,1361196660.659453,13704,-3588,-1168,nan,0.000000
2,5,10,0,4014098,173041024,8361329564067838847,1361196660.659453,14284,-2080,-2128,nan,0.000000
2,5,10,0,4014098,173041024,8361329564067841468,1361196660.659453,14580,-2940,-3072,nan,0.000000
2,5,10,0,4014098,173041024,8361329564067844089,1361196660.659453,14520,-2724,-3100,nan,0.000000
2,5,10,0,4014098,173041024,8361329564067846710,1361196660.659453,15304,-3752,-3528,nan,0.000000
2,5,11,0,4014098,173041056,8361329564067849331,1361196663.133826,18520,-4876,-4432,nan,0.000000
2,5,11,0,4014098,173041056,8361329564067851952,1361196663.133826,17848,-1456,-584,nan,0.000000
2,5,11,0,4014098,173041056,8361329564067854573,1361196663.133826,14768,-724,428,nan,0.000000
2,5,11,0,4014098,173041056,8361329564067857194,1361196663.133826,17612,80,-1968,nan,0.000000
2,5,11,0,4014098,173041056,8361329564067859815,1361196663.133826,15088,-2360,160,nan,0.000000
1,5,12,0,4095354,173122124,-5116844563859394322,1361196663.134953,16048,-3052,-1108,nan,0.000000
1,5,12,0,4095354,173122124,-5116844563859391701,1361196663.134953,15564,-2164,-680,nan,0.000000
2,5,13,0,4095354,173122156,-5116844563859389080,1361196663.135579,15632,-2476,-1148,nan,0.000000
2,5,13,0,4095354,173122156,-5116844563859386459,1361196663.135579,16260,-2144,-1204,nan,0.000000
2,5,13,0,4095354,173122156,-5116844563859383838,1361196663.135579,15364,516,-2704,nan,0.000000
2,5,13,0,4095354,173122156,-5116844563859381217,1361196663.135579,16232,-1384,-2712,nan,0.000000
2,5,13,0,4095354,173122156,-5116844563859378596,1361196663.135579,15724,-1096,-2640,nan,0.000000
2,5,14,0,4095354,173122188,-5116844563859375975,1361196663.136573,16032,-856,-2208,nan,0.000000
2,5,14,0,4095354,173122188,-5116844563859373354,1361196663.136573,16220,-1968,-2956,nan,0.000000
2,5,14,0,4095354,173122188,-5116844563859370733,1361196663.136573,15316,-832,-3568,nan,0.000000
2,5,14,0,4095354,173122188,-5116844563859368112,1361196663.136573,14996,-372,-3960,nan,0.000000
2,5,14,0,4095354,173122188,-5116844563859365491,1361196663.136573,15280,-680,-4400,nan,0.000000
2,5,15,0,4095354,173122220,-5116844563859362870,1361196663.137390,15656,192,-4976,nan,0.000000
2,5,15,0,4095354,173122220,-5116844563859360249,1361196663.137390,15172,480,-5204,nan,0.000000
2,5,15,0,4095354,173122220,-5116844563859357628,1361196663.137390,18164,1404,-4728,nan,0.000000
2,5,15,0,4095354,173122220,-5116844563859355007,1361196663.137390,16320,-660,-1212,nan,0.000000
2,5,15,0,4095354,173122220,-5116844563859352386,1361196663.137390,15636,-3248,100,nan,0.000000
2,5,0,0,4095354,173122252,-5116844563859349765,1361196663.139533,16584,-1524,-492,nan,0.000000
2,5,0,0,4095354,173122252,-5116844563859347144,1361196663.139533,14328,-4404,-1024,nan,0.000000
2,5,0,0,4095354,173122252,-5116844563859344523,1361196663.139533,14280,-4124,-1884,nan,0.000000
2,5,0,0,4095354,173122252,-5116844563859341902,1361196663.139533,14472,-4300,-2936,nan,0.000000
2,5,0,0,4095354,173122252,-5116844563859339281,1361196663.139533,14528,-3896,-2264,nan,0.000000
2,5,1,0,4095354,173122284,-5116844563859336660,1361196663.140244,16624,-5068,-3088,nan,0.000000
2,5,1,0,4095354,173122284,-5116844563859334039,1361196663.140244,18844,-5056,-5208,nan,0.000000
2,5,1,0,4095354,173122284,-5116844563859331418,1361196663.140244,17364,-908,1072,nan,0.000000
2,5,1,0,4095354,173122284,-5116844563859328797,1361196663.140244,15932,-776,-1348,nan,0.000000
2,5,1,0,4095354,173122284,-5116844563859326176,1361196663.140244,14816,-5220,-336,nan,0.000000
2,5,2,0,4095354,173122316,-5116844563859323555,1361196665.613726,14472,-1584,-2292,nan,0.000000
2,5,2,0,4095354,173122316,-5116844563859320934,1361196665.613726,14400,-1768,-2704,nan,0.000000
2,5,2,0,4095354,173122316,-5116844563859318313,1361196665.613726,14324,-3488,-2656,nan,0.000000
2,5,2,0,4095354,173122316,-5116844563859315692,1361196665.613726,14968,-2944,-3208,nan,0.000000
2,5,2,0,4095354,173122316,-5116844563859313071,1361196665.613726,16368,-4196,-4312,nan,0.000000
1,5,3,0,4176611,173203384,8139439360345378039,1361196665.614839,16020,-752,1832,nan,0.000000
1,5,3,0,4176611,173203384,8139439360345380660,1361196665.614839,16356,-1120,-196,nan,0.000000
2,5,4,0,4176611,173203416,8139439360345383281,1361196665.616188,14372,-716,-1296,nan,0.000000
2,5,4,0,4176611,173203416,8139439360345385902,1361196665.616188,14532,-4392,-972,nan,0.000000
2,5,4,0,4176611,173203416,8139439360345388523,1361196665.616188,15036,-4256,-1968,nan,0.000000
2,5,4,0,4176611,173203416,8139439360345391144,1361196665.616188,14568,-3804,-1824,nan,0.000000
2,5,4,0,4176611,173203416,8139439360345393765,1361196665.616188,14856,-4760,-2908,nan,0.000000
2,5,5,0,4176611,173203448,8139439360345396386,1361196665.622625,15764,-4216,-3464,nan,0.000000
2,5,5,0,4176611,173203448,8139439360345399007,1361196665.622625,18812,-3548,-2480,nan,0.000000
2,5,5,0,4176611,173203448,8139439360345401628,1361196665.622625,15148,164,692,nan,0.000000
2,5,5,0,4176611,173203448,8139439360345404249,1361196665.622625,17172,-3952,-3212,nan,0.000000
2,5,5,0,4176611,173203448,8139439360345406870,1361196665.622625,15208,-3744,-692,nan,0.000000
2,5,6,0,4176611,173203480,8139439360345409491,1361196665.626881,15088,-1588,-2088,nan,0.000000
2,5,6,0,4176611,173203480,8139439360345412112,1361196665.626881,15148,-2196,-2432,nan,0.000000
2,5,6,0,4176611,173203480,8139439360345414733,1361196665.626881,15828,-2564,-1748,nan,0.000000
2,5,6,0,4176611,173203480,8139439360345417354,1361196665.626881,15656,-2308,-1648,nan,0.000000
2,5,6,0,4176611,173203480,8139439360345419975,1361196665.626881,16156,-2912,-1308,nan,0.000000
2,5,7,0,4176611,173203512,8139439360345422596,1361196665.630942,16704,-1712,2560,nan,0.000000
2,5,7,0,4176611,173203512,8139439360345425217,1361196665.630942,14564,-2068,1016,nan,0.000000
2,5,7,0,4176611,173203512,8139439360345427838,1361196665.630942,16040,-4528,1748,nan,0.000000
2,5,7,0,4176611,173203512,8139439360345430459,1361196665.630942,16000,-3356,2524,nan,0.000000
2,5,7,0,4176611,173203512,8139439360345433080,1361196665.630942,15968,-2600,2264,nan,0.000000
2,5,8,0,4176611,173203544,8139439360345435701,1361196665.633862,15564,-3924,2288,nan,0.000000
2,5,8,0,4176611,173203544,8139439360345438322,1361196665.633862,15328,-4532,2592,nan,0.000000
2,5,8,0,4176611,173203544,8139439360345440943,1361196665.633862,14660,-5452,3588,nan,0.000000
2,5,8,0,4176611,173203544,8139439360345443564,1361196665.633862,14884,-4704,3356,nan,0.000000
2,5,8,0,4176611,173203544,8139439360345446185,1361196665.633862,15432,-3604,2096,nan,0.000000
2,5,9,0,4176611,173203576,8139439360345448806,1361196668.093730,16616,-1980,-264,nan,0.000000
2,5,9,0,4176611,173203576,8139439360345451427,1361196668.093730,18388,-2828,-1168,nan,0.000000
2,5,9,0,4176611,173203576,8139439360345454048,1361196668.093730,17164,-168,-1648,nan,0.000000
2,5,9,0,4176611,173203576,8139439360345456669,1361196668.093730,13952,-88,-1908,nan,0.000000
2,5,9,0,4176611,173203576,8139439360345459290,1361196668.093730,15400,-2580,-932,nan,0.000000
1,5,10,0,4257868,173284646,8141370083772987646,1361196668.095178,14596,-2796,-2396,nan,0.000000
1,5,10,0,4257868,173284646,8141370083772990267,1361196668.095178,15716,-3392,-2320,nan,0.000000
2,5,11,0,4257868,173284678,8141370083772992888,1361196668.103668,17800,-4840,-4368,nan,0.000000
2,5,11,0,4257868,173284678,8141370083772995509,1361196668.103668,19888,-1916,632,nan,0.000000
2,5,11,0,4257868,173284678,8141370083772998130,1361196668.103668,16104,468,3372,nan,0.000000
2,5,11,0,4257868,173284678,8141370083773000751,1361196668.103668,15144,352,-1456,nan,0.000000
2,5,11,0,4257868,173284678,8141370083773003372,1361196668.103668,14612,-1228,-4,nan,0.000000
2,5,12,0,4257868,173284976,8141370083773005993,1361196668.104613,13944,-4816,-1628,nan,0.000000
2,5,12,0,4257868,173284976,8141370083773008614,1361196668.104613,13604,-4780,-2836,nan,0.000000
2,5,12,0,4257868,173284976,8141370083773011235,1361196668.104613,13332,-4344,-2856,nan,0.000000
2,5,12,0,4257868,173284976,8141370083773013856,1361196668.104613,16260,-4648,-3740,nan,0.000000
2,5,12,0,4257868,173284976,8141370083773016477,1361196668.104613,21384,-4192,-4536,nan,0.000000
2,5,13,0,4257868,173285008,8141370083773019098,1361196668.105626,15948,1476,2504,nan,0.000000
2,5,13,0,4257868,173285008,8141370083773021719,1361196668.105626,18000,-2920,-1912,nan,0.000000
2,5,13,0,4257868,173285008,8141370083773024340,1361196668.105626,13500,-5632,-332,nan,0.000000
2,5,13,0,4257868,173285008,8141370083773026961,1361196668.105626,13988,-1092,-2612,nan,0.000000
2,5,13,0,4257868,173285008,8141370083773029582,1361196668.105626,14328,-1944,-3388,nan,0.000000
2,5,14,0,4257868,173285040,8141370083773032203,1361196668.106392,13976,-2436,-3512,nan,0.000000
2,5,14,0,4257868,173285040,8141370083773034824,1361196668.106392,15128,-2988,-4256,nan,0.000000
2,5,14,0,4257868,173285040,8141370083773037445,1361196668.106392,18968,-5464,-5520,nan,0.000000
2,5,14,0,4257868,173285040,8141370083773040066,1361196668.106392,18636,68,-764,nan,0.000000
2,5,14,0,4257868,173285040,8141370083773042687,1361196668.106392,15772,-92,1044,nan,0.000000
2,5,15,0,4257868,173285072,8141370083773045308,1361196668.107724,16448,2104,-2188,nan,0.000000
2,5,15,0,4257868,173285072,8141370083773047929,1361196668.107724,15440,-2788,468,nan,0.000000
2,5,15,0,4257868,173285072,8141370083773050550,1361196668.107724,15696,-2104,-396,nan,0.000000
2,5,15,0,4257868,173285072,8141370083773053171,1361196668.107724,15764,-1764,-232,nan,0.000000
2,5,15,0,4257868,173285072,8141370083773055792,1361196668.107724,16036,-1056,48,nan,0.000000
2,5,0,0,4257868,173285104,8141370083773058413,1361196670.573749,15924,-2400,-32,nan,0.000000
2,5,0,0,4257868,173285104,8141370083773061034,1361196670.573749,16112,680,-2208,nan,0.000000
2,5,0,0,4257868,173285104,8141370083773063655,1361196670.573749,15912,-24,-2204,nan,0.000000
2,5,0,0,4257868,173285104,8141370083773066276,1361196670.573749,16648,116,-2728,nan,0.000000
2,5,0,0,4257868,173285104,8141370083773068897,1361196670.573749,15668,-84,-2388,nan,0.000000
1,5,1,0,4339126,173365907,6987238077462667519,1361196670.575051,15632,428,-3084,nan,0.000000
1,5,1,0,4339126,173365907,6987238077462670140,1361196670.575051,15312,532,-3268,nan,0.000000
2,5,2,0,4339126,173365939,6987238077462672761,1361196670.575774,15468,364,-3788,nan,0.000000
2,5,2,0,4339126,173365939,6987238077462675382,1361196670.575774,15428,336,-4388,nan,0.000000
2,5,2,0,4339126,173365939,6987238077462678003,1361196670.575774,15556,-228,-4184,nan,0.000000
2,5,2,0,4339126,173365939,6987238077462680624,1361196670.575774,19100,84,-1080,nan,0.000000
2,5,2,0,4339126,173365939,6987238077462683245,1361196670.575774,14932,-2348,-1096,nan,0.000000
2,5,3,0,4339126,173365971,6987238077462685866,1361196670.576454,17408,-2964,-348,nan,0.000000
2,5,3,0,4339126,173365971,6987238077462688487,1361196670.576454,13480,-5292,-376,nan,0.000000
2,5,3,0,4339126,173365971,6987238077462691108,1361196670.576454,14508,-4660,-2136,nan,0.000000
2,5,3,0,4339126,173365971,6987238077462693729,1361196670.576454,14500,-4444,-3040,nan,0.000000
2,5,3,0,4339126,173365971,6987238077462696350,1361196670.576454,13956,-4536,-2708,nan,0.000000
2,5,4,0,4339126,173366003,6987238077462698971,1361196670.577356,15064,-4780,-2940,nan,0.000000
2,5,4,0,4339126,173366003,6987238077462701592,1361196670.577356,17056,-5972,-3908,nan,0.000000
2,5,4,0,4339126,173366003,6987238077462704213,1361196670.577356,19624,-5052,-3012,nan,0.000000
2,5,4,0,4339126,173366003,6987238077462706834,1361196670.577356,15240,1172,2164,nan,0.000000
2,5,4,0,4339126,173366003,6987238077462709455,1361196670.577356,17580,-3952,-1764,nan,0.000000
2,5,5,0,4339126,173366035,6987238077462712076,1361196670.578338,13320,-4368,-548,nan,0.000000
2,5,5,0,4339126,173366035,6987238077462714697,1361196670.578338,14372,-788,-2600,nan,0.000000
2,5,5,0,4339126,173366035,6987238077462717318,1361196670.578338,14388,-2984,-3076,nan,0.000000
2,5,5,0,4339126,173366035,6987238077462719939,1361196670.578338,13972,-3460,-2600,nan,0.000000
2,5,5,0,4339126,173366035,6987238077462722560,1361196670.578338,15624,-3380,-3860,nan,0.000000
2,5,6,0,4339126,173366067,6987238077462725181,1361196670.579321,19676,-6936,-5392,nan,0.000000
2,5,6,0,4339126,173366067,6987238077462727802,1361196670.579321,17628,-48,1368,nan,0.000000
2,5,6,0,4339126,173366067,6987238077462730423,1361196670.579321,16556,-1088,1140,nan,0.000000
2,5,6,0,4339126,173366067,6987238077462733044,1361196670.579321,15332,456,-2476,nan,0.000000
2,5,6,0,4339126,173366067,6987238077462735665,1361196670.579321,13208,-3996,-1680,nan,0.000000
2,5,7,0,4339126,173366099,6987238077462738286,1361196673.053408,14520,-5076,-2432,nan,0.000000
2,5,7,0,4339126,173366099,6987238077462740907,1361196673.053408,14004,-4500,-2756,nan,0.000000
2,5,7,0,4339126,173366099,6987238077462743528,1361196673.053408,14948,-3872,-2712,nan,0.000000
2,5,7,0,4339126,173366099,6987238077462746149,1361196673.053408,15392,-4684,-4404,nan,0.000000
2,5,7,0,4339126,173366099,6987238077462748770,1361196673.053408,19872,-5208,-4072,nan,0.000000
1,5,8,0,4420385,173447170,4392536784051273974,1361196673.054517,15928,-2536,-2996,nan,0.000000
1,5,8,0,4420385,173447170,4392536784051276595,1361196673.054517,16084,-5812,-1744,nan,0.000000
2,5,9,0,4420385,173447202,4392536784051279216,1361196673.055271,14272,-1796,-2612,nan,0.000000
2,5,9,0,4420385,173447202,4392536784051281837,1361196673.055271,15448,-2316,-2708,nan,0.000000
2,5,9,0,4420385,173447202,4392536784051284458,1361196673.055271,15304,-3604,-2360,nan,0.000000
2,5,9,0,4420385,173447202,4392536784051287079,1361196673.055271,15256,-3144,-2620,nan,0.000000
2,5,9,0,4420385,173447202,4392536784051289700,1361196673.055271,16148,-3124,-2228,nan,0.000000
2,5,10,0,4420385,173447234,4392536784051292321,1361196673.056381,17596,-3208,2092,nan,0.000000
2,5,10,0,4420385,173447234,4392536784051294942,1361196673.056381,14136,-1100,528,nan,0.000000
2,5,10,0,4420385,173447234,4392536784051297563,1361196673.056381,16076,-4372,792,nan,0.000000
2,5,10,0,4420385,173447234,4392536784051300184,1361196673.056381,15996,-3636,1364,nan,0.000000
2,5,10,0,4420385,173447234,4392536784051302805,1361196673.056381,15456,-3956,1772,nan,0.000000
2,5,11,0,4420385,173447266,4392536784051305426,1361196673.057343,15760,-3740,1816,nan,0.000000
2,5,11,0,4420385,173447266,4392536784051308047,1361196673.057343,15760,-4148,1832,nan,0.000000
2,5,11,0,4420385,173447266,4392536784051310668,1361196673.057343,15644,-4680,2196,nan,0.000000
2,5,11,0,4420385,173447266,4392536784051313289,1361196673.057343,15044,-4596,2180,nan,0.000000
2,5,11,0,4420385,173447266,4392536784051315910,1361196673.057343,14664,-5352,2424,nan,0.000000
2,5,12,0,4420385,173447298,4392536784051318531,1361196673.058075,15368,-4316,1416,nan,0.000000
2,5,12,0,4420385,173447298,4392536784051321152,1361196673.058075,16400,-1436,-736,nan,0.000000
2,5,12,0,4420385,173447298,4392536784051323773,1361196673.058075,15916,-4228,-1580,nan,0.000000
2,5,12,0,4420385,173447298,4392536784051326394,1361196673.058075,19476,-2300,-2748,nan,0.000000
2,5,12,0,4420385,173447298,4392536784051329015,1361196673.058075,13512,-840,-1640,nan,0.000000
2,5,13,0,4420385,173447330,4392536784051331636,1361196673.059248,14752,-2056,-2696,nan,0.000000
2,5,13,0,4420385,173447330,4392536784051334257,1361196673.059248,15776,-2864,-1964,nan,0.000000
2,5,13,0,4420385,173447330,4392536784051336878,1361196673.059248,15084,-3048,-2068,nan,0.000000
2,5,13,0,4420385,173447330,4392536784051339499,1361196673.059248,14708,-2452,-2796,nan,0.000000
2,5,13,0,4420385,173447330,4392536784051342120,1361196673.059248,15672,-3140,-3452,nan,0.000000
2,5,14,0,4420385,173447362,4392536784051344741,1361196675.533465,17264,-4604,-4160,nan,0.000000
2,5,14,0,4420385,173447362,4392536784051347362,1361196675.533465,19416,-2212,-1848,nan,0.000000
2,5,14,0,4420385,173447362,4392536784051349983,1361196675.533465,15968,-8,2696,nan,0.000000
2,5,14,0,4420385,173447362,4392536784051352604,1361196675.533465,15988,72,-1740,nan,0.000000
2,5,14,0,4420385,173447362,4392536784051355225,1361196675.533465,14892,124,-948,nan,0.000000
1,5,15,0,4501640,173528430,-3965317252344200977,1361196675.535770,14008,-3396,-2696,nan,0.000000
1,5,15,0,4501640,173528430,-3965317252344198356,1361196675.535770,13352,-4328,-2892,nan,0.000000
2,5,0,0,4501640,173528462,-3965317252344195735,1361196675.536251,14632,-4020,-2772,nan,0.000000
2,5,0,0,4501640,173528462,-3965317252344193114,1361196675.536251,17548,-5336,-5352,nan,0.000000
2,5,0,0,4501640,173528462,-3965317252344190493,1361196675.536251,19276,-3652,-3656,nan,0.000000
2,5,0,0,4501640,173528462,-3965317252344187872,1361196675.536251,15696,1492,1480,nan,0.000000
2,5,0,0,4501640,173528462,-3965317252344185251,1361196675.536251,17920,-3316,-2388,nan,0.000000
2,5,1,0,4501640,173528494,-3965317252344182630,1361196675.537020,13436,-4668,-1004,nan,0.000000
2,5,1,0,4501640,173528494,-3965317252344180009,1361196675.537020,14224,-1204,-2968,nan,0.000000
2,5,1,0,4501640,173528494,-3965317252344177388,1361196675.537020,14456,-2228,-3732,nan,0.000000
2,5,1,0,4501640,173528494,-3965317252344174767,1361196675.537020,14360,-2492,-3560,nan,0.000000
2,5,1,0,4501640,173528494,-3965317252344172146,1361196675.537020,15632,-3176,-4300,nan,0.000000
2,5,2,0,4501640,173528526,-3965317252344169525,1361196675.537841,16948,-3996,-6716,nan,0.000000
2,5,2,0,4501640,173528526,-3965317252344166904,1361196675.537841,18612,-2244,-2832,nan,0.000000
2,5,2,0,4501640,173528526,-3965317252344164283,1361196675.537841,15804,-1312,220,nan,0.000000
2,5,2,0,4501640,173528526,-3965317252344161662,1361196675.537841,15816,-692,-1668,nan,0.000000
2,5,2,0,4501640,173528526,-3965317252344159041,1361196675.537841,16052,-780,-1936,nan,0.000000
2,5,3,0,4501640,173528558,-3965317252344156420,1361196675.538504,14812,-3576,-712,nan,0.000000
2,5,3,0,4501640,173528558,-3965317252344153799,1361196675.538504,15828,-3460,-1220,nan,0.000000
2,5,3,0,4501640,173528558,-3965317252344151178,1361196675.538504,15360,-3296,-1732,nan,0.000000
2,5,3,0,4501640,173528558,-3965317252344148557,1361196675.538504,15976,-2968,-464,nan,0.000000
2,5,3,0,4501640,173528558,-3965317252344145936,1361196675.538504,16024,-2780,-916,nan,0.000000
2,5,4,0,4501640,173528590,-3965317252344143315,1361196675.539384,16420,-136,-1156,nan,0.000000
2,5,4,0,4501640,173528590,-3965317252344140694,1361196675.539384,15496,-916,-1148,nan,0.000000
2,5,4,0,4501640,173528590,-3965317252344138073,1361196675.539384,16276,-2288,-1756,nan,0.000000
2,5,4,0,4501640,173528590,-3965317252344135452,1361196675.539384,15292,48,-1472,nan,0.000000
2,5,4,0,4501640,173528590,-3965317252344132831,1361196675.539384,17132,-956,-904,nan,0.000000
2,5,5,0,4501640,173528622,-3965317252344130210,1361196678.013611,16248,-1040,-884,nan,0.000000
2,5,5,0,4501640,173528622,-3965317252344127589,1361196678.013611,15768,-464,-1412,nan,0.000000
2,5,5,0,4501640,173528622,-3965317252344124968,1361196678.013611,15812,460,-1524,nan,0.000000
2,5,5,0,4501640,173528622,-3965317252344122347,1361196678.013611,15644,1076,-1368,nan,0.000000
2,5,5,0,4501640,173528622,-3965317252344119726,1361196678.013611,18680,-2580,-948,nan,0.000000
1,5,6,0,4582896,173609691,9005564274914725116,1361196678.015008,17416,-4672,-1424,nan,0.000000
1,5,6,0,4582896,173609691,9005564274914727737,1361196678.015008,14208,-4548,-628,nan,0.000000
2,5,7,0,4582896,173609723,9005564274914730358,1361196678.015556,15160,-4804,-1120,nan,0.000000
2,5,7,0,4582896,173609723,9005564274914732979,1361196678.015556,14680,-5028,-2044,nan,0.000000
2,5,7,0,4582896,173609723,9005564274914735600,1361196678.015556,14784,-3992,-2160,nan,0.000000
2,5,7,0,4582896,173609723,9005564274914738221,1361196678.015556,14684,-4864,-2372,nan,0.000000
2,5,7,0,4582896,173609723,9005564274914740842,1361196678.015556,15164,-5000,-2964,nan,0.000000
2,5,8,0,4582896,173609755,9005564274914743463,1361196678.016680,16456,-5632,-3480,nan,0.000000
2,5,8,0,4582896,173609755,9005564274914746084,1361196678.016680,19436,-3836,-1556,nan,0.000000
2,5,8,0,4582896,173609755,9005564274914748705,1361196678.016680,15904,1716,1588,nan,0.000000
2,5,8,0,4582896,173609755,9005564274914751326,1361196678.016680,16664,-6276,-1444,nan,0.000000
2,5,8,0,4582896,173609755,9005564274914753947,1361196678.016680,13464,-3492,-1148,nan,0.000000
2,5,9,0,4582896,173609787,9005564274914756568,1361196678.017806,14036,-1560,-2208,nan,0.000000
2,5,9,0,4582896,173609787,9005564274914759189,1361196678.017806,14600,-2480,-3188,nan,0.000000
2,5,9,0,4582896,173609787,9005564274914761810,1361196678.017806,13940,-2916,-3212,nan,0.000000
2,5,9,0,4582896,173609787,9005564274914764431,1361196678.017806,15616,-3488,-4080,nan,0.000000
2,5,9,0,4582896,173609787,9005564274914767052,1361196678.017806,18736,-6640,-4816,nan,0.000000
2,5,10,0,4582896,173609819,9005564274914769673,1361196678.018503,19640,-44,-1076,nan,0.000000
2,5,10,0,4582896,173609819,9005564274914772294,1361196678.018503,14468,-496,2116,nan,0.000000
2,5,10,0,4582896,173609819,9005564274914774915,1361196678.018503,16288,356,-2796,nan,0.000000
2,5,10,0,4582896,173609819,9005564274914777536,1361196678.018503,14476,-2264,-1404,nan,0.000000
2,5,10,0,4582896,173609819,9005564274914780157,1361196678.018503,14292,-4396,-1504,nan,0.000000
2,5,11,0,4582896,173609851,9005564274914782778,1361196678.019299,13796,-4752,-2704,nan,0.000000
2,5,11,0,4582896,173609851,9005564274914785399,1361196678.019299,13824,-4452,-2384,nan,0.000000
2,5,11,0,4582896,173609851,9005564274914788020,1361196678.019299,15280,-4540,-3408,nan,0.000000
2,5,11,0,4582896,173609851,9005564274914790641,1361196678.019299,19252,-5032,-5024,nan,0.000000
2,5,11,0,4582896,173609851,9005564274914793262,1361196678.019299,17784,-2196,512,nan,0.000000
2,5,12,0,4582896,173609883,9005564274914795883,1361196680.493416,15160,-488,-796,nan,0.000000
2,5,12,0,4582896,173609883,9005564274914798504,1361196680.493416,15836,-6768,-912,nan,0.000000
2,5,12,0,4582896,173609883,9005564274914801125,1361196680.493416,14888,-2756,-1260,nan,0.000000
2,5,12,0,4582896,173609883,9005564274914803746,1361196680.493416,15276,-1884,-1200,nan,0.000000
2,5,12,0,4582896,173609883,9005564274914806367,1361196680.493416,15304,-4024,-2220,nan,0.000000
1,5,13,0,4664154,173690953,8141541543295968508,1361196680.494529,14592,-3144,-2032,nan,0.000000
1,5,13,0,4664154,173690953,8141541543295971129,1361196680.494529,17180,-3832,-956,nan,0.000000
2,5,14,0,4664154,173690984,8141541543295973750,1361196680.495236,16208,-2672,1828,nan,0.000000
2,5,14,0,4664154,173690984,8141541543295976371,1361196680.495236,13704,-1924,224,nan,0.000000
2,5,14,0,4664154,173690984,8141541543295978992,1361196680.495236,16988,-4276,1176,nan,0.000000
2,5,14,0,4664154,173690984,8141541543295981613,1361196680.495236,15584,-4284,700,nan,0.000000
2,5,14,0,4664154,173690984,8141541543295984234,1361196680.495236,15660,-4172,1840,nan,0.000000
2,5,15,0,4664154,173691017,8141541543295986855,1361196680.497493,16432,-3628,1740,nan,0.000000
2,5,15,0,4664154,173691017,8141541543295989476,1361196680.497493,15988,-2820,1156,nan,0.000000
2,5,15,0,4664154,173691017,8141541543295992097,1361196680.497493,15068,-4428,1984,nan,0.000000
2,5,15,0,4664154,173691017,8141541543295994718,1361196680.497493,14920,-4768,2064,nan,0.000000
2,5,15,0,4664154,173691017,8141541543295997339,1361196680.497493,15036,-4624,1504,nan,0.000000
2,5,0,0,4664154,173691048,8141541543295999960,1361196680.504626,17000,-1840,-288,nan,0.000000
2,5,0,0,4664154,173691048,8141541543296002581,1361196680.504626,14324,-2304,-776,nan,0.000000
2,5,0,0,4664154,173691048,8141541543296005202,1361196680.504626,19976,-2000,-2716,nan,0.000000
2,5,0,0,4664154,173691048,8141541543296007823,1361196680.504626,15688,-1940,-1536,nan,0.000000
2,5,0,0,4664154,173691048,8141541543296010444,1361196680.504626,13528,-472,-2664,nan,0.000000
2,5,1,0,4664154,173691080,8141541543296013065,1361196680.507026,15900,-2336,-2632,nan,0.000000
2,5,1,0,4664154,173691080,8141541543296015686,1361196680.507026,15352,-2180,-2616,nan,0.000000
2,5,1,0,4664154,173691080,8141541543296018307,1361196680.507026,14740,-1920,-2748,nan,0.000000
2,5,1,0,4664154,173691080,8141541543296020928,1361196680.507026,14844,-2696,-3568,nan,0.000000
2,5,1,0,4664154,173691080,8141541543296023549,1361196680.507026,15484,-3156,-3816,nan,0.000000
2,5,2,0,4664154,173691112,8141541543296026170,1361196680.510407,19340,-4216,-4892,nan,0.000000
2,5,2,0,4664154,173691112,8141541543296028791,1361196680.510407,18000,-232,-812,nan,0.000000
2,5,2,0,4664154,173691112,8141541543296031412,1361196680.510407,14976,-484,732,nan,0.000000
2,5,2,0,4664154,173691112,8141541543296034033,1361196680.510407,16348,644,-2276,nan,0.000000
2,5,2,0,4664154,173691112,8141541543296036654,1361196680.510407,15080,-700,-1856,nan,0.000000
2,5,3,0,4664154,173691144,8141541543296039275,1361196682.973538,14352,-4156,-1468,nan,0.000000
2,5,3,0,4664154,173691144,8141541543296041896,1361196682.973538,13980,-4044,-3068,nan,0.000000
2,5,3,0,4664154,173691144,8141541543296044517,1361196682.973538,14436,-3620,-2688,nan,0.000000
2,5,3,0,4664154,173691144,8141541543296047138,1361196682.973538,15540,-4288,-3260,nan,0.000000
2,5,3,0,4664154,173691144,8141541543296049759,1361196682.973538,16568,-4740,-4788,nan,0.000000
1,5,4,0,4745411,173772215,356968478486709498,1361196682.974617,17008,1588,-24,nan,0.000000
1,5,4,0,4745411,173772215,356968478486712119,1361196682.974617,16740,-2728,-2424,nan,0.000000
2,5,5,0,4745411,173772247,356968478486714740,1361196682.975169,14320,-3648,-1784,nan,0.000000
2,5,5,0,4745411,173772247,356968478486717361,1361196682.975169,14160,-1280,-2980,nan,0.000000
2,5,5,0,4745411,173772247,356968478486719982,1361196682.975169,15292,-1376,-3820,nan,0.000000
2,5,5,0,4745411,173772247,356968478486722603,1361196682.975169,14376,-2500,-3344,nan,0.000000
2,5,5,0,4745411,173772247,356968478486725224,1361196682.975169,14936,-2976,-4048,nan,0.000000
2,5,6,0,4745411,173772279,356968478486727845,1361196682.976146,15300,-3848,-4216,nan,0.000000
2,5,6,0,4745411,173772279,356968478486730466,1361196682.976146,19004,-3692,-4328,nan,0.000000
2,5,6,0,4745411,173772279,356968478486733087,1361196682.976146,17656,-980,-1208,nan,0.000000
2,5,6,0,4745411,173772279,356968478486735708,1361196682.976146,14404,-1024,252,nan,0.000000
2,5,6,0,4745411,173772279,356968478486738329,1361196682.976146,17572,384,-2156,nan,0.000000
2,5,7,0,4745411,173772311,356968478486740950,1361196682.977140,14820,-2312,-320,nan,0.000000
2,5,7,0,4745411,173772311,356968478486743571,1361196682.977140,15524,-3212,-576,nan,0.000000
2,5,7,0,4745411,173772311,356968478486746192,1361196682.977140,15960,-3300,-1852,nan,0.000000
2,5,7,0,4745411,173772311,356968478486748813,1361196682.977140,15888,-2604,-1248,nan,0.000000
2,5,7,0,4745411,173772311,356968478486751434,1361196682.977140,15068,-4192,-1076,nan,0.000000
2,5,8,0,4745411,173772343,356968478486754055,1361196682.978011,16164,-2312,-1032,nan,0.000000
2,5,8,0,4745411,173772343,356968478486756676,1361196682.978011,15304,808,-888,nan,0.000000
2,5,8,0,4745411,173772343,356968478486759297,1361196682.978011,16048,-404,-836,nan,0.000000
2,5,8,0,4745411,173772343,356968478486761918,1361196682.978011,17384,-1832,-1928,nan,0.000000
2,5,8,0,4745411,173772343,356968478486764539,1361196682.978011,15648,348,-2256,nan,0.000000
2,5,9,0,4745411,173772375,356968478486767160,1361196682.979219,16004,-1820,-1604,nan,0.000000
2,5,9,0,4745411,173772375,356968478486769781,1361196682.979219,15736,-752,-2764,nan,0.000000
2,5,9,0,4745411,173772375,356968478486772402,1361196682.979219,15356,312,-3216,nan,0.000000
2,5,9,0,4745411,173772375,356968478486775023,1361196682.979219,15352,64,-3856,nan,0.000000
2,5,9,0,4745411,173772375,356968478486777644,1361196682.979219,15368,0,-4552,nan,0.000000
2,5,10,0,4745411,173772407,356968478486780265,1361196685.461459,15856,-228,-4472,nan,0.000000
2,5,10,0,4745411,173772407,356968478486782886,1361196685.461459,20696,1468,-928,nan,0.000000
2,5,10,0,4745411,173772407,356968478486785507,1361196685.461459,13688,-1040,-1060,nan,0.000000
2,5,10,0,4745411,173772407,356968478486788128,1361196685.461459,17592,-1772,204,nan,0.000000
2,5,10,0,4745411,173772407,356968478486790749,1361196685.461459,14296,-4192,-444,nan,0.000000
1,5,11,0,4826668,173853766,6988667455062182126,1361196685.463186,15052,-3588,-2084,nan,0.000000
1,5,11,0,4826668,173853766,6988667455062184747,1361196685.463186,14556,-3732,-2648,nan,0.000000
2,5,12,0,4826668,173853798,6988667455062187368,1361196685.463782,14552,-4060,-1960,nan,0.000000
2,5,12,0,4826668,173853798,6988667455062189989,1361196685.463782,16552,-4248,-2900,nan,0.000000
2,5,12,0,4826668,173853798,6988667455062192610,1361196685.463782,17988,-6372,-4400,nan,0.000000
2,5,12,0,4826668,173853798,6988667455062195231,1361196685.463782,18408,-2312,-808,nan,0.000000
2,5,12,0,4826668,173853798,6988667455062197852,1361196685.463782,15292,3000,-352,nan,0.000000
2,5,13,0,4826668,173853829,6988667455062200473,1361196685.466003,15928,-7044,-780,nan,0.000000
2,5,13,0,4826668,173853829,6988667455062203094,1361196685.466003,14440,-2180,-2064,nan,0.000000
2,5,13,0,4826668,173853829,6988667455062205715,1361196685.466003,13984,-972,-2328,nan,0.000000
2,5,13,0,4826668,173853829,6988667455062208336,1361196685.466003,14700,-3040,-2892,nan,0.000000
2,5,13,0,4826668,173853829,6988667455062210957,1361196685.466003,14692,-3676,-3324,nan,0.000000
2,5,14,0,4826668,173853861,6988667455062213578,1361196685.471280,16860,-3480,-4936,nan,0.000000
2,5,14,0,4826668,173853861,6988667455062216199,1361196685.471280,19208,-4952,-3024,nan,0.000000
2,5,14,0,4826668,173853861,6988667455062218820,1361196685.471280,16308,-1980,996,nan,0.000000
2,5,14,0,4826668,173853861,6988667455062221441,1361196685.471280,15672,-2028,496,nan,0.000000
2,5,14,0,4826668,173853861,6988667455062224062,1361196685.471280,15540,-128,-2532,nan,0.000000
2,5,15,0,4826668,173853893,6988667455062226683,1361196685.473856,13680,-4632,-964,nan,0.000000
2,5,15,0,4826668,173853893,6988667455062229304,1361196685.473856,14708,-4736,-1864,nan,0.000000
2,5,15,0,4826668,173853893,6988667455062231925,1361196685.473856,14488,-3964,-1772,nan,0.000000
2,5,15,0,4826668,173853893,6988667455062234546,1361196685.473856,15200,-4200,-2164,nan,0.000000
2,5,15,0,4826668,173853893,6988667455062237167,1361196685.473856,16836,-5112,-2968,nan,0.000000
2,5,0,0,4826668,173853925,6988667455062239788,1361196685.478123,18112,-3180,-940,nan,0.000000
2,5,0,0,4826668,173853925,6988667455062242409,1361196685.478123,13992,-964,92,nan,0.000000
2,5,0,0,4826668,173853925,6988667455062245030,1361196685.478123,17692,-5268,-2104,nan,0.000000
2,5,0,0,4826668,173853925,6988667455062247651,1361196685.478123,15080,-2408,-1244,nan,0.000000
2,5,0,0,4826668,173853925,6988667455062250272,1361196685.478123,14844,-2040,-1512,nan,0.000000
2,5,1,0,4826668,173853957,6988667455062252893,1361196687.933296,15720,-2688,-2336,nan,0.000000
2,5,1,0,4826668,173853957,6988667455062255514,1361196687.933296,16168,-2680,-1420,nan,0.000000
2,5,1,0,4826668,173853957,6988667455062258135,1361196687.933296,15360,-2468,-2160,nan,0.000000
2,5,1,0,4826668,173853957,6988667455062260756,1361196687.933296,17212,-2560,-752,nan,0.000000
2,5,1,0,4826668,173853957,6988667455062263377,1361196687.933296,14020,-2816,1332,nan,0.000000
1,5,2,0,4907924,173934736,8429200239100944630,1361196687.934331,16396,-2664,684,nan,0.000000
1,5,2,0,4907924,173934736,8429200239100947251,1361196687.934331,16292,-3144,896,nan,0.000000
2,5,3,0,4907924,173934768,8429200239100949872,1361196687.935119,16024,-3824,840,nan,0.000000
2,5,3,0,4907924,173934768,8429200239100952493,1361196687.935119,15992,-3056,364,nan,0.000000
2,5,3,0,4907924,173934768,8429200239100955114,1361196687.935119,15188,-4596,1336,nan,0.000000
2,5,3,0,4907924,173934768,8429200239100957735,1361196687.935119,14912,-4760,2036,nan,0.000000
2,5,3,0,4907924,173934768,8429200239100960356,1361196687.935119,14896,-4932,2028,nan,0.000000
2,5,4,0,4907924,173934800,8429200239100962977,1361196687.935986,14964,-4176,1844,nan,0.000000
2,5,4,0,4907924,173934800,8429200239100965598,1361196687.935986,17772,1016,-2804,nan,0.000000
2,5,4,0,4907924,173934800,8429200239100968219,1361196687.935986,17992,-3788,-1460,nan,0.000000
2,5,4,0,4907924,173934800,8429200239100970840,1361196687.935986,16344,-484,-3004,nan,0.000000
2,5,4,0,4907924,173934800,8429200239100973461,1361196687.935986,13672,-856,-2836,nan,0.000000
2,5,5,0,4907924,173934832,8429200239100976082,1361196687.937061,15748,-2620,-2412,nan,0.000000
2,5,5,0,4907924,173934832,8429200239100978703,1361196687.937061,15216,-2648,-2284,nan,0.000000
2,5,5,0,4907924,173934832,8429200239100981324,1361196687.937061,14620,-2272,-2324,nan,0.000000
2,5,5,0,4907924,173934832,8429200239100983945,1361196687.937061,14972,-3576,-3260,nan,0.000000
2,5,5,0,4907924,173934832,8429200239100986566,1361196687.937061,16032,-3428,-3156,nan,0.000000
2,5,6,0,4907924,173934864,8429200239100989187,1361196687.937953,20780,-4460,-3596,nan,0.000000
2,5,6,0,4907924,173934864,8429200239100991808,1361196687.937953,16300,992,1624,nan,0.000000
2,5,6,0,4907924,173934864,8429200239100994429,1361196687.937953,17192,-608,780,nan,0.000000
2,5,6,0,4907924,173934864,8429200239100997050,1361196687.937953,14400,1180,-1404,nan,0.000000
2,5,6,0,4907924,173934864,8429200239100999671,1361196687.937953,14324,-3924,-380,nan,0.000000
2,5,7,0,4907924,173934895,8429200239101002292,1361196687.939047,13648,-4892,-2228,nan,0.000000
2,5,7,0,4907924,173934895,8429200239101004913,1361196687.939047,14080,-4312,-2404,nan,0.000000
2,5,7,0,4907924,173934895,8429200239101007534,1361196687.939047,14900,-3536,-2248,nan,0.000000
2,5,7,0,4907924,173934895,8429200239101010155,1361196687.939047,17492,-5844,-3668,nan,0.000000
2,5,7,0,4907924,173934895,8429200239101012776,1361196687.939047,19644,-3592,-2204,nan,0.000000
2,5,8,0,4907924,173934928,8429200239101015397,1361196690.413423,14980,1976,104,nan,0.000000
2,5,8,0,4907924,173934928,8429200239101018018,1361196690.413423,16680,-5208,-1492,nan,0.000000
2,5,8,0,4907924,173934928,8429200239101020639,1361196690.413423,14376,-2500,-2044,nan,0.000000
2,5,8,0,4907924,173934928,8429200239101023260,1361196690.413423,14524,-1832,-2328,nan,0.000000
2,5,8,0,4907924,173934928,8429200239101025881,1361196690.413423,14668,-2660,-3216,nan,0.000000
1,5,9,0,4989179,174015994,3241088609792649216,1361196690.414670,15020,-2700,-4600,nan,0.000000
1,5,9,0,4989179,174015994,3241088609792651837,1361196690.414670,18288,-4964,-4200,nan,0.000000
2,5,10,0,4989179,174016026,3241088609792654458,1361196690.415155,18460,-1256,-752,nan,0.000000
2,5,10,0,4989179,174016026,3241088609792657079,1361196690.415155,14552,-208,296,nan,0.000000
2,5,10,0,4989179,174016026,3241088609792659700,1361196690.415155,17412,428,-1960,nan,0.000000
2,5,10,0,4989179,174016026,3241088609792662321,1361196690.415155,14632,-2684,-876,nan,0.000000
2,5,10,0,4989179,174016026,3241088609792664942,1361196690.415155,15324,-3092,-1468,nan,0.000000
2,5,11,0,4989179,174016058,3241088609792667563,1361196690.416061,15772,-3072,-1932,nan,0.000000
2,5,11,0,4989179,174016058,3241088609792670184,1361196690.416061,16004,-3016,-1880,nan,0.000000
2,5,11,0,4989179,174016058,3241088609792672805,1361196690.416061,15540,-3768,-1596,nan,0.000000
2,5,11,0,4989179,174016058,3241088609792675426,1361196690.416061,14584,604,-1612,nan,0.000000
2,5,11,0,4989179,174016058,3241088609792678047,1361196690.416061,16476,-1572,-1196,nan,0.000000
2,5,12,0,4989179,174016090,3241088609792680668,1361196690.417044,17488,-1788,-2496,nan,0.000000
2,5,12,0,4989179,174016090,3241088609792683289,1361196690.417044,15316,-728,-2348,nan,0.000000
2,5,12,0,4989179,174016090,3241088609792685910,1361196690.417044,15760,-1104,-2384,nan,0.000000
2,5,12,0,4989179,174016090,3241088609792688531,1361196690.417044,16176,-1604,-2460,nan,0.000000
2,5,12,0,4989179,174016090,3241088609792691152,1361196690.417044,15472,-356,-3240,nan,0.000000
2,5,13,0,4989179,174016122,3241088609792693773,1361196690.417794,15736,424,-3348,nan,0.000000
2,5,13,0,4989179,174016122,3241088609792696394,1361196690.417794,15780,16,-3456,nan,0.000000
2,5,13,0,4989179,174016122,3241088609792699015,1361196690.417794,15872,48,-4372,nan,0.000000
2,5,13,0,4989179,174016122,3241088609792701636,1361196690.417794,16356,-48,-5288,nan,0.000000
2,5,13,0,4989179,174016122,3241088609792704257,1361196690.417794,16524,308,-3624,nan,0.000000
2,5,14,0,4989179,174016154,3241088609792706878,1361196690.419008,15632,-684,-1912,nan,0.000000
2,5,14,0,4989179,174016154,3241088609792709499,1361196690.419008,15808,-2360,-392,nan,0.000000
2,5,14,0,4989179,174016154,3241088609792712120,1361196690.419008,16684,-696,-816,nan,0.000000
2,5,14,0,4989179,174016154,3241088609792714741,1361196690.419008,15316,-2524,-140,nan,0.000000
2,5,14,0,4989179,174016154,3241088609792717362,1361196690.419008,15260,-4512,-940,nan,0.000000
2,5,15,0,4989179,174016186,3241088609792719983,1361196692.893622,15304,-4296,-2176,nan,0.000000
2,5,15,0,4989179,174016186,3241088609792722604,1361196692.893622,14664,-4132,-2376,nan,0.000000
2,5,15,0,4989179,174016186,3241088609792725225,1361196692.893622,14684,-5112,-2816,nan,0.000000
2,5,15,0,4989179,174016186,3241088609792727846,1361196692.893622,15032,-4528,-3084,nan,0.000000
2,5,15,0,4989179,174016186,3241088609792730467,1361196692.893622,19252,-3476,-4184,nan,0.000000
1,5,0,0,5070434,174097255,-5118661006192967433,1361196692.895040,17560,-4464,-864,nan,0.000000
1,5,0,0,5070434,174097255,-5118661006192964812,1361196692.895040,13612,-4376,-572,nan,0.000000
2,5,1,0,5070434,174097286,-5118661006192962191,1361196692.895461,14208,-1348,-2356,nan,0.000000
2,5,1,0,5070434,174097286,-5118661006192959570,1361196692.895461,15060,-2228,-2820,nan,0.000000
2,5,1,0,5070434,174097286,-5118661006192956949,1361196692.895461,14404,-2968,-3052,nan,0.000000
2,5,1,0,5070434,174097286,-5118661006192954328,1361196692.895461,15280,-3336,-3444,nan,0.000000
2,5,1,0,5070434,174097286,-5118661006192951707,1361196692.895461,16664,-3812,-4088,nan,0.000000
2,5,2,0,5070434,174097319,-5118661006192949086,1361196692.896350,19556,-4400,-2892,nan,0.000000
2,5,2,0,5070434,174097319,-5118661006192946465,1361196692.896350,15804,-748,1188,nan,0.000000
2,5,2,0,5070434,174097319,-5118661006192943844,1361196692.896350,15784,-1628,404,nan,0.000000
2,5,2,0,5070434,174097319,-5118661006192941223,1361196692.896350,15996,-384,-1968,nan,0.000000
2,5,2,0,5070434,174097319,-5118661006192938602,1361196692.896350,13520,-3980,-1104,nan,0.000000
2,5,3,0,5070434,174097350,-5118661006192935981,1361196692.897539,14724,-5008,-1900,nan,0.000000
2,5,3,0,5070434,174097350,-5118661006192933360,1361196692.897539,14552,-3964,-2272,nan,0.000000
2,5,3,0,5070434,174097350,-5118661006192930739,1361196692.897539,14688,-4264,-1888,nan,0.000000
2,5,3,0,5070434,174097350,-5118661006192928118,1361196692.897539,15608,-3740,-3432,nan,0.000000
2,5,3,0,5070434,174097350,-5118661006192925497,1361196692.897539,20304,-3524,-2868,nan,0.000000
2,5,4,0,5070434,174097383,-5118661006192922876,1361196692.898104,14284,-836,760,nan,0.000000
2,5,4,0,5070434,174097383,-5118661006192920255,1361196692.898104,17400,-4668,-3004,nan,0.000000
2,5,4,0,5070434,174097383,-5118661006192917634,1361196692.898104,14960,-3540,-688,nan,0.000000
2,5,4,0,5070434,174097383,-5118661006192915013,1361196692.898104,15204,-1324,-1636,nan,0.000000
2,5,4,0,5070434,174097383,-5118661006192912392,1361196692.898104,15292,-2000,-2672,nan,0.000000
2,5,5,0,5070434,174097414,-5118661006192909771,1361196692.899055,15488,-2572,-1864,nan,0.000000
2,5,5,0,5070434,174097414,-5118661006192907150,1361196692.899055,16080,-3128,-2084,nan,0.000000
2,5,5,0,5070434,174097414,-5118661006192904529,1361196692.899055,16600,-2280,-1024,nan,0.000000
2,5,5,0,5070434,174097414,-5118661006192901908,1361196692.899055,14952,-3680,1308,nan,0.000000
2,5,5,0,5070434,174097414,-5118661006192899287,1361196692.899055,14752,-3616,-44,nan,0.000000
2,5,6,0,5070434,174097446,-5118661006192896666,1361196695.375279,16248,-3168,428,nan,0.000000
2,5,6,0,5070434,174097446,-5118661006192894045,1361196695.375279,15780,-3480,1428,nan,0.000000
2,5,6,0,5070434,174097446,-5118661006192891424,1361196695.375279,16080,-3808,1304,nan,0.000000
2,5,6,0,5070434,174097446,-5118661006192888803,1361196695.375279,15432,-4032,876,nan,0.000000
2,5,6,0,5070434,174097446,-5118661006192886182,1361196695.375279,15376,-4524,2032,nan,0.000000
1,5,7,0,5151689,174178621,-7780697389865784319,1361196695.377039,15424,-4388,1892,nan,0.000000
1,5,7,0,5151689,174178621,-7780697389865781698,1361196695.377039,15008,-4756,1944,nan,0.000000
2,5,8,0,5151689,174178653,-7780697389865779077,1361196695.377439,15124,-4600,1920,nan,0.000000
2,5,8,0,5151689,174178653,-7780697389865776456,1361196695.377439,15460,-4076,1008,nan,0.000000
2,5,8,0,5151689,174178653,-7780697389865773835,1361196695.377439,16436,-1996,-284,nan,0.000000
2,5,8,0,5151689,174178653,-7780697389865771214,1361196695.377439,16160,-3004,-1664,nan,0.000000
2,5,8,0,5151689,174178653,-7780697389865768593,1361196695.377439,17840,-2304,-2036,nan,0.000000
2,5,9,0,5151689,174178685,-7780697389865765972,1361196695.379005,14624,-564,-1956,nan,0.000000
2,5,9,0,5151689,174178685,-7780697389865763351,1361196695.379005,15152,-1844,-2364,nan,0.000000
2,5,9,0,5151689,174178685,-7780697389865760730,1361196695.379005,15312,-2520,-1752,nan,0.000000
2,5,9,0,5151689,174178685,-7780697389865758109,1361196695.379005,14776,-2684,-2012,nan,0.000000
2,5,9,0,5151689,174178685,-7780697389865755488,1361196695.379005,15232,-3224,-2804,nan,0.000000
2,5,10,0,5151689,174178717,-7780697389865752867,1361196695.380258,15992,-3524,-2604,nan,0.000000
2,5,10,0,5151689,174178717,-7780697389865750246,1361196695.380258,18324,-5452,-4084,nan,0.000000
2,5,10,0,5151689,174178717,-7780697389865747625,1361196695.380258,18280,-1008,740,nan,0.000000
2,5,10,0,5151689,174178717,-7780697389865745004,1361196695.380258,15032,-864,2096,nan,0.000000
2,5,10,0,5151689,174178717,-7780697389865742383,1361196695.380258,16352,-120,-1948,nan,0.000000
2,5,11,0,5151689,174178749,-7780697389865739762,1361196695.381143,14024,-2376,-620,nan,0.000000
2,5,11,0,5151689,174178749,-7780697389865737141,1361196695.381143,14708,-3948,-1192,nan,0.000000
2,5,11,0,5151689,174178749,-7780697389865734520,1361196695.381143,14204,-4260,-2460,nan,0.000000
2,5,11,0,5151689,174178749,-7780697389865731899,1361196695.381143,13964,-4588,-2356,nan,0.000000
2,5,11,0,5151689,174178749,-7780697389865729278,1361196695.381143,15160,-4356,-2540,nan,0.000000
2,5,12,0,5151689,174178781,-7780697389865726657,1361196695.381941,19240,-4696,-4328,nan,0.000000
2,5,12,0,5151689,174178781,-7780697389865724036,1361196695.381941,18272,-496,428,nan,0.000000
2,5,12,0,5151689,174178781,-7780697389865721415,1361196695.381941,16388,60,-1616,nan,0.000000
2,5,12,0,5151689,174178781,-7780697389865718794,1361196695.381941,14672,-6588,428,nan,0.000000
2,5,12,0,5151689,174178781,-7780697389865716173,1361196695.381941,15160,-1096,-2620,nan,0.000000
2,5,13,0,5151689,174178813,-7780697389865713552,1361196697.853036,14472,-1532,-2256,nan,0.000000
2,5,13,0,5151689,174178813,-7780697389865710931,1361196697.853036,14560,-2700,-2840,nan,0.000000
2,5,13,0,5151689,174178813,-7780697389865708310,1361196697.853036,14852,-2428,-3484,nan,0.000000
2,5,13,0,5151689,174178813,-7780697389865705689,1361196697.853036,15964,-3968,-3528,nan,0.000000
2,5,13,0,5151689,174178813,-7780697389865703068,1361196697.853036,20520,-2444,-3628,nan,0.000000
1,5,14,0,5232944,174259771,-1660573763215281929,1361196697.854250,13776,52,-84,nan,0.000000
1,5,14,0,5232944,174259771,-1660573763215279308,1361196697.854250,19048,-584,-1792,nan,0.000000
2,5,15,0,5232944,174259803,-1660573763215276687,1361196697.854623,15124,-1368,-1012,nan,0.000000
2,5,15,0,5232944,174259803,-1660573763215274066,1361196697.854623,15568,-2952,-56,nan,0.000000
2,5,15,0,5232944,174259803,-1660573763215271445,1361196697.854623,15652,-3564,-1300,nan,0.000000
2,5,15,0,5232944,174259803,-1660573763215268824,1361196697.854623,15640,-2476,-968,nan,0.000000
2,5,15,0,5232944,174259803,-1660573763215266203,1361196697.854623,16128,-2128,-1028,nan,0.000000
2,5,0,0,5232944,174259835,-1660573763215263582,1361196697.855675,15616,-2624,-444,nan,0.000000
2,5,0,0,5232944,174259835,-1660573763215260961,1361196697.855675,15236,164,-1928,nan,0.000000
2,5,0,0,5232944,174259835,-1660573763215258340,1361196697.855675,16264,-1032,-1412,nan,0.000000
2,5,0,0,5232944,174259835,-1660573763215255719,1361196697.855675,17076,-1592,-2632,nan,0.000000
2,5,0,0,5232944,174259835,-1660573763215253098,1361196697.855675,15640,-864,-2000,nan,0.000000
2,5,1,0,5232944,174259867,-1660573763215250477,1361196697.856528,15656,-2344,-1848,nan,0.000000
2,5,1,0,5232944,174259867,-1660573763215247856,1361196697.856528,16076,-1620,-2440,nan,0.000000
2,5,1,0,5232944,174259867,-1660573763215245235,1361196697.856528,15436,-360,-3052,nan,0.000000
2,5,1,0,5232944,174259867,-1660573763215242614,1361196697.856528,15428,-696,-3224,nan,0.000000
2,5,1,0,5232944,174259867,-1660573763215239993,1361196697.856528,15608,-640,-3704,nan,0.000000
2,5,2,0,5232944,174259899,-1660573763215237372,1361196697.857310,16076,-372,-3816,nan,0.000000
2,5,2,0,5232944,174259899,-1660573763215234751,1361196697.857310,18980,0,-2620,nan,0.000000
2,5,2,0,5232944,174259899,-1660573763215232130,1361196697.857310,14680,-964,-1916,nan,0.000000
2,5,2,0,5232944,174259899,-1660573763215229509,1361196697.857310,15712,-2556,1116,nan,0.000000
2,5,2,0,5232944,174259899,-1660573763215226888,1361196697.857310,16988,-2256,228,nan,0.000000
2,5,3,0,5232944,174259931,-1660573763215224267,1361196697.857988,14496,-4052,-136,nan,0.000000
2,5,3,0,5232944,174259931,-1660573763215221646,1361196697.857988,14772,-3984,-912,nan,0.000000
2,5,3,0,5232944,174259931,-1660573763215219025,1361196697.857988,15004,-3712,-1960,nan,0.000000
2,5,3,0,5232944,174259931,-1660573763215216404,1361196697.857988,14296,-4124,-1984,nan,0.000000
2,5,3,0,5232944,174259931,-1660573763215213783,1361196697.857988,15812,-4088,-2292,nan,0.000000
2,5,4,0,5232944,174259963,-1660573763215211162,1361196700.333415,16864,-5068,-3636,nan,0.000000
2,5,4,0,5232944,174259963,-1660573763215208541,1361196700.333415,19172,-4088,-2364,nan,0.000000
2,5,4,0,5232944,174259963,-1660573763215205920,1361196700.333415,15428,2324,1832,nan,0.000000
2,5,4,0,5232944,174259963,-1660573763215203299,1361196700.333415,17576,-5060,-1792,nan,0.000000
2,5,4,0,5232944,174259963,-1660573763215200678,1361196700.333415,13080,-3844,-628,nan,0.000000
1,5,5,0,5314198,174341031,-4254202967289574159,1361196700.334592,14472,-2680,-2764,nan,0.000000
1,5,5,0,5314198,174341031,-4254202967289571538,1361196700.334592,14532,-2968,-3040,nan,0.000000
2,5,6,0,5314198,174341063,-4254202967289568917,1361196700.335207,16352,-2948,-4700,nan,0.000000
2,5,6,0,5314198,174341063,-4254202967289566296,1361196700.335207,18424,-5316,-4908,nan,0.000000
2,5,6,0,5314198,174341063,-4254202967289563675,1361196700.335207,17892,-1848,-444,nan,0.000000
2,5,6,0,5314198,174341063,-4254202967289561054,1361196700.335207,14920,-1844,1428,nan,0.000000
2,5,6,0,5314198,174341063,-4254202967289558433,1361196700.335207,15868,328,-3020,nan,0.000000
2,5,7,0,5314198,174341094,-4254202967289555812,1361196700.336056,14272,-2896,-1552,nan,0.000000
2,5,7,0,5314198,174341094,-4254202967289553191,1361196700.336056,14180,-4496,-1328,nan,0.000000
2,5,7,0,5314198,174341094,-4254202967289550570,1361196700.336056,14940,-4180,-1744,nan,0.000000
2,5,7,0,5314198,174341094,-4254202967289547949,1361196700.336056,14864,-3760,-2128,nan,0.000000
2,5,7,0,5314198,174341094,-4254202967289545328,1361196700.336056,16356,-3676,-2284,nan,0.000000
2,5,8,0,5314198,174341127,-4254202967289542707,1361196700.336833,20480,-3200,-1900,nan,0.000000
2,5,8,0,5314198,174341127,-4254202967289540086,1361196700.336833,12984,356,-144,nan,0.000000
2,5,8,0,5314198,174341127,-4254202967289537465,1361196700.336833,17752,-4212,-2396,nan,0.000000
2,5,8,0,5314198,174341127,-4254202967289534844,1361196700.336833,15552,-2364,-1648,nan,0.000000
2,5,8,0,5314198,174341127,-4254202967289532223,1361196700.336833,14928,-1800,-1744,nan,0.000000
2,5,9,0,5314198,174341159,-4254202967289529602,1361196700.337767,15524,-2596,-2048,nan,0.000000
2,5,9,0,5314198,174341159,-4254202967289526981,1361196700.337767,16276,-2764,-1168,nan,0.000000
2,5,9,0,5314198,174341159,-4254202967289524360,1361196700.337767,15312,-2440,-2604,nan,0.000000
2,5,9,0,5314198,174341159,-4254202967289521739,1361196700.337767,16740,-3828,272,nan,0.000000
2,5,9,0,5314198,174341159,-4254202967289519118,1361196700.337767,14128,-2044,2100,nan,0.000000
2,5,10,0,5314198,174341191,-4254202967289516497,1361196700.338493,16300,-2816,-68,nan,0.000000
2,5,10,0,5314198,174341191,-4254202967289513876,1361196700.338493,16328,-2960,756,nan,0.000000
2,5,10,0,5314198,174341191,-4254202967289511255,1361196700.338493,15764,-4252,820,nan,0.000000
2,5,10,0,5314198,174341191,-4254202967289508634,1361196700.338493,16096,-3084,788,nan,0.000000
2,5,10,0,5314198,174341191,-4254202967289506013,1361196700.338493,15764,-3464,1188,nan,0.000000
2,5,11,0,5314198,174341222,-4254202967289503392,1361196702.810933,15512,-3860,1540,nan,0.000000
2,5,11,0,5314198,174341222,-4254202967289500771,1361196702.810933,15256,-4364,1916,nan,0.000000
2,5,11,0,5314198,174341222,-4254202967289498150,1361196702.810933,14964,-5200,1992,nan,0.000000
2,5,11,0,5314198,174341222,-4254202967289495529,1361196702.810933,15612,-2392,456,nan,0.000000
2,5,11,0,5314198,174341222,-4254202967289492908,1361196702.810933,15984,-2408,-1012,nan,0.000000
1,5,12,0,5395451,174422290,8937381291133436934,1361196702.812875,17180,-100,-3436,nan,0.000000
1,5,12,0,5395451,174422290,8937381291133439555,1361196702.812875,14036,-1188,-3184,nan,0.000000
2,5,13,0,5395451,174422322,8937381291133442176,1361196702.813215,15604,-2044,-2664,nan,0.000000
2,5,13,0,5395451,174422322,8937381291133444797,1361196702.813215,15540,-1192,-2532,nan,0.000000
2,5,13,0,5395451,174422322,8937381291133447418,1361196702.813215,14776,-1980,-2992,nan,0.000000
2,5,13,0,5395451,174422322,8937381291133450039,1361196702.813215,15104,-1824,-3128,nan,0.000000
2,5,13,0,5395451,174422322,8937381291133452660,1361196702.813215,16068,-2816,-3732,nan,0.000000
2,5,14,0,5395451,174422354,8937381291133455281,1361196702.815008,18328,-4056,-4012,nan,0.000000
2,5,14,0,5395451,174422354,8937381291133457902,1361196702.815008,18656,-956,-1804,nan,0.000000
2,5,14,0,5395451,174422354,8937381291133460523,1361196702.815008,14908,-328,1744,nan,0.000000
2,5,14,0,5395451,174422354,8937381291133463144,1361196702.815008,16756,-16,-1440,nan,0.000000
2,5,14,0,5395451,174422354,8937381291133465765,1361196702.815008,14808,-1044,-1140,nan,0.000000
2,5,15,0,5395451,174422386,8937381291133468386,1361196702.815886,14156,-3960,-1176,nan,0.000000
2,5,15,0,5395451,174422386,8937381291133471007,1361196702.815886,14204,-4416,-2276,nan,0.000000
2,5,15,0,5395451,174422386,8937381291133473628,1361196702.815886,13992,-4444,-3060,nan,0.000000
2,5,15,0,5395451,174422386,8937381291133476249,1361196702.815886,14860,-4012,-2308,nan,0.000000
2,5,15,0,5395451,174422386,8937381291133478870,1361196702.815886,17440,-5308,-4168,nan,0.000000
2,5,0,0,5395451,174422418,8937381291133481491,1361196702.817091,18940,-3756,-2336,nan,0.000000
2,5,0,0,5395451,174422418,8937381291133484112,1361196702.817091,16040,2120,672,nan,0.000000
2,5,0,0,5395451,174422418,8937381291133486733,1361196702.817091,16976,-4936,-1796,nan,0.000000
2,5,0,0,5395451,174422418,8937381291133489354,1361196702.817091,13796,-3860,-1648,nan,0.000000
2,5,0,0,5395451,174422418,8937381291133491975,1361196702.817091,14484,-1452,-1936,nan,0.000000
2,5,1,0,5395451,174422450,8937381291133494596,1361196702.817685,14488,-2600,-3444,nan,0.000000
2,5,1,0,5395451,174422450,8937381291133497217,1361196702.817685,14412,-3292,-2920,nan,0.000000
2,5,1,0,5395451,174422450,8937381291133499838,1361196702.817685,14832,-3628,-3404,nan,0.000000
2,5,1,0,5395451,174422450,8937381291133502459,1361196702.817685,18836,-4376,-4068,nan,0.000000
2,5,1,0,5395451,174422450,8937381291133505080,1361196702.817685,19192,-1968,-2072,nan,0.000000
2,5,2,0,5395451,174422482,8937381291133507701,1361196705.291160,12260,-352,1028,nan,0.000000
2,5,2,0,5395451,174422482,8937381291133510322,1361196705.291160,17844,-904,-1376,nan,0.000000
2,5,2,0,5395451,174422482,8937381291133512943,1361196705.291160,16092,-1520,-1608,nan,0.000000
2,5,2,0,5395451,174422482,8937381291133515564,1361196705.291160,15200,-2212,-420,nan,0.000000
2,5,2,0,5395451,174422482,8937381291133518185,1361196705.291160,14960,-3704,-1032,nan,0.000000
1,5,3,0,5476704,174503546,-6847027256711904252,1361196705.292842,15264,-3120,-1864,nan,0.000000
1,5,3,0,5476704,174503546,-6847027256711901631,1361196705.292842,15968,-2912,-1728,nan,0.000000
2,5,4,0,5476704,174503578,-6847027256711899010,1361196705.294665,17804,-2120,-1760,nan,0.000000
2,5,4,0,5476704,174503578,-6847027256711896389,1361196705.294665,12896,-356,188,nan,0.000000
2,5,4,0,5476704,174503578,-6847027256711893768,1361196705.294665,17444,-704,-3084,nan,0.000000
2,5,4,0,5476704,174503578,-6847027256711891147,1361196705.294665,16792,-2360,-1876,nan,0.000000
2,5,4,0,5476704,174503578,-6847027256711888526,1361196705.294665,15372,544,-2344,nan,0.000000
2,5,5,0,5476704,174503610,-6847027256711885905,1361196705.295453,15616,-640,-2216,nan,0.000000
2,5,5,0,5476704,174503610,-6847027256711883284,1361196705.295453,16280,-536,-1988,nan,0.000000
2,5,5,0,5476704,174503610,-6847027256711880663,1361196705.295453,16084,-48,-2336,nan,0.000000
2,5,5,0,5476704,174503610,-6847027256711878042,1361196705.295453,15736,-260,-2832,nan,0.000000
2,5,5,0,5476704,174503610,-6847027256711875421,1361196705.295453,15604,-120,-2788,nan,0.000000
2,5,6,0,5476704,174503642,-6847027256711872800,1361196705.296218,15556,236,-3052,nan,0.000000
2,5,6,0,5476704,174503642,-6847027256711870179,1361196705.296218,15644,64,-3472,nan,0.000000
2,5,6,0,5476704,174503642,-6847027256711867558,1361196705.296218,15800,-124,-3816,nan,0.000000
2,5,6,0,5476704,174503642,-6847027256711864937,1361196705.296218,15968,344,-3044,nan,0.000000
2,5,6,0,5476704,174503642,-6847027256711862316,1361196705.296218,18448,636,-3212,nan,0.000000
2,5,7,0,5476704,174503674,-6847027256711859695,1361196705.296973,14724,-96,-2576,nan,0.000000
2,5,7,0,5476704,174503674,-6847027256711857074,1361196705.296973,15640,-2080,-56,nan,0.000000
2,5,7,0,5476704,174503674,-6847027256711854453,1361196705.296973,17428,-2312,-720,nan,0.000000
2,5,7,0,5476704,174503674,-6847027256711851832,1361196705.296973,14548,-3184,-440,nan,0.000000
2,5,7,0,5476704,174503674,-6847027256711849211,1361196705.296973,15032,-4060,-1728,nan,0.000000
2,5,8,0,5476704,174503706,-6847027256711846590,1361196705.297669,14900,-3728,-2684,nan,0.000000
2,5,8,0,5476704,174503706,-6847027256711843969,1361196705.297669,14628,-3896,-2728,nan,0.000000
2,5,8,0,5476704,174503706,-6847027256711841348,1361196705.297669,14592,-4164,-2608,nan,0.000000
2,5,8,0,5476704,174503706,-6847027256711838727,1361196705.297669,16388,-4620,-4332,nan,0.000000
2,5,8,0,5476704,174503706,-6847027256711836106,1361196705.297669,19120,-4552,-4696,nan,0.000000
2,5,9,0,5476704,174503738,-6847027256711833485,1361196707.771145,15220,676,2184,nan,0.000000
2,5,9,0,5476704,174503738,-6847027256711830864,1361196707.771145,18064,-2980,-2056,nan,0.000000
2,5,9,0,5476704,174503738,-6847027256711828243,1361196707.771145,13996,-5788,-548,nan,0.000000
2,5,9,0,5476704,174503738,-6847027256711825622,1361196707.771145,14464,-964,-1880,nan,0.000000
2,5,9,0,5476704,174503738,-6847027256711823001,1361196707.771145,14592,-2424,-3012,nan,0.000000
1,5,10,0,5557959,174584805,-506834227593574392,1361196707.772874,15136,-3220,-2672,nan,0.000000
1,5,10,0,5557959,174584805,-506834227593571771,1361196707.772874,16300,-4708,-3992,nan,0.000000
2,5,11,0,5557959,174584837,-506834227593569150,1361196707.773463,19780,-4568,-2808,nan,0.000000
2,5,11,0,5557959,174584837,-506834227593566529,1361196707.773463,15360,-1092,1196,nan,0.000000
2,5,11,0,5557959,174584837,-506834227593563908,1361196707.773463,15304,-2064,692,nan,0.000000
2,5,11,0,5557959,174584837,-506834227593561287,1361196707.773463,16784,-820,-1984,nan,0.000000
2,5,11,0,5557959,174584837,-506834227593558666,1361196707.773463,13460,-3668,-1188,nan,0.000000
2,5,12,0,5557959,174584868,-506834227593556045,1361196707.774833,14916,-4560,-1316,nan,0.000000
2,5,12,0,5557959,174584868,-506834227593553424,1361196707.774833,14804,-3972,-2060,nan,0.000000
2,5,12,0,5557959,174584868,-506834227593550803,1361196707.774833,14680,-4440,-1784,nan,0.000000
2,5,12,0,5557959,174584868,-506834227593548182,1361196707.774833,15008,-3924,-2572,nan,0.000000
2,5,12,0,5557959,174584868,-506834227593545561,1361196707.774833,19668,-4880,-2688,nan,0.000000
2,5,13,0,5557959,174584901,-506834227593542940,1361196707.775731,16080,-1148,752,nan,0.000000
2,5,13,0,5557959,174584901,-506834227593540319,1361196707.775731,15260,-756,-1556,nan,0.000000
2,5,13,0,5557959,174584901,-506834227593537698,1361196707.775731,16852,-5224,-1124,nan,0.000000
2,5,13,0,5557959,174584901,-506834227593535077,1361196707.775731,14628,-1668,-1212,nan,0.000000
2,5,13,0,5557959,174584901,-506834227593532456,1361196707.775731,15844,-1536,-1636,nan,0.000000
2,5,14,0,5557959,174584932,-506834227593529835,1361196707.776776,15664,-2424,-1616,nan,0.000000
2,5,14,0,5557959,174584932,-506834227593527214,1361196707.776776,15448,-2388,-1480,nan,0.000000
2,5,14,0,5557959,174584932,-506834227593524593,1361196707.776776,15500,-1088,-2852,nan,0.000000
2,5,14,0,5557959,174584932,-506834227593521972,1361196707.776776,17164,-3652,-1300,nan,0.000000
2,5,14,0,5557959,174584932,-506834227593519351,1361196707.776776,15892,-1988,1352,nan,0.000000
2,5,15,0,5557959,174584965,-506834227593516730,1361196707.777832,13884,-764,604,nan,0.000000
2,5,15,0,5557959,174584965,-506834227593514109,1361196707.777832,18288,-2440,1132,nan,0.000000
2,5,15,0,5557959,174584965,-506834227593511488,1361196707.777832,14996,-3420,420,nan,0.000000
2,5,15,0,5557959,174584965,-506834227593508867,1361196707.777832,15676,-3424,1400,nan,0.000000
2,5,15,0,5557959,174584965,-506834227593506246,1361196707.777832,15988,-3700,2144,nan,0.000000
1,5,1,0,5639212,174747320,-2592401082734999545,1361196712.733039,16424,-1256,-960,nan,0.000000
1,5,1,2,5639212,174747320,-2592401082734996924,1361196712.733039,15984,-3200,-1484,nan,0.000000
2,5,2,2,5639212,174747352,-2592401082734994303,1361196712.733987,18800,-2112,-2888,nan,0.000000
2,5,2,2,5639212,174747352,-2592401082734991682,1361196712.733987,14272,-448,-2016,nan,0.000000
2,5,2,2,5639212,174747352,-2592401082734989061,1361196712.733987,14944,-1636,-2388,nan,0.000000
2,5,2,2,5639212,174747352,-2592401082734986440,1361196712.733987,15632,-2408,-2456,nan,0.000000
2,5,2,2,5639212,174747352,-2592401082734983819,1361196712.733987,15212,-2568,-1864,nan,0.000000
2,5,3,2,5639212,174747384,-2592401082734981198,1361196712.734856,14832,-2392,-2492,nan,0.000000
2,5,3,2,5639212,174747384,-2592401082734978577,1361196712.734856,14904,-2780,-3312,nan,0.000000
2,5,3,2,5639212,174747384,-2592401082734975956,1361196712.734856,15760,-2996,-3012,nan,0.000000
2,5,3,2,5639212,174747384,-2592401082734973335,1361196712.734856,19268,-5376,-3456,nan,0.000000
2,5,3,2,5639212,174747384,-2592401082734970714,1361196712.734856,18352,-744,-112,nan,0.000000
2,5,4,2,5639212,174747416,-2592401082734968093,1361196712.735707,14588,-332,1664,nan,0.000000
2,5,4,2,5639212,174747416,-2592401082734965472,1361196712.735707,16212,796,-1116,nan,0.000000
2,5,4,2,5639212,174747416,-2592401082734962851,1361196712.735707,15260,-2868,-124,nan,0.000000
2,5,4,2,5639212,174747416,-2592401082734960230,1361196712.735707,14124,-4204,-1500,nan,0.000000
2,5,4,2,5639212,174747416,-2592401082734957609,1361196712.735707,14164,-4184,-2584,nan,0.000000
2,5,5,2,5639212,174747448,-2592401082734954988,1361196712.736708,13916,-4376,-2876,nan,0.000000
2,5,5,2,5639212,174747448,-2592401082734952367,1361196712.736708,15180,-4592,-2424,nan,0.000000
2,5,5,2,5639212,174747448,-2592401082734949746,1361196712.736708,18448,-4576,-4464,nan,0.000000
2,5,5,2,5639212,174747448,-2592401082734947125,1361196712.736708,18256,-2676,-576,nan,0.000000
2,5,5,2,5639212,174747448,-2592401082734944504,1361196712.736708,15940,1236,-640,nan,0.000000
2,5,6,2,5639212,174747480,-2592401082734941883,1361196712.737664,15800,-5644,-628,nan,0.000000
2,5,6,2,5639212,174747480,-2592401082734939262,1361196712.737664,14160,-2360,-2424,nan,0.000000
2,5,6,2,5639212,174747480,-2592401082734936641,1361196712.737664,14728,-1552,-2404,nan,0.000000
2,5,6,2,5639212,174747480,-2592401082734934020,1361196712.737664,14740,-2840,-2692,nan,0.000000
2,5,6,2,5639212,174747480,-2592401082734931399,1361196712.737664,14800,-3068,-2664,nan,0.000000
2,5,7,2,5639212,174747512,-2592401082734928778,1361196712.738762,14828,-3052,-3376,nan,0.000000
2,5,7,2,5639212,174747512,-2592401082734926157,1361196712.738762,18832,-5756,-4156,nan,0.000000
2,5,7,2,5639212,174747512,-2592401082734923536,1361196712.738762,19112,-820,-1124,nan,0.000000
2,5,7,2,5639212,174747512,-2592401082734920915,1361196712.738762,13168,-148,520,nan,0.000000
2,5,7,2,5639212,174747512,-2592401082734918294,1361196712.738762,18020,88,-2648,nan,0.000000
1,5,8,0,5720467,174747544,-4256036984158826254,1361196712.739708,15760,-2540,-1372,nan,0.000000
1,5,8,15,5720467,174747544,-4256036984158823633,1361196712.739708,15300,-3720,-2184,nan,0.000000
2,5,9,15,5720467,174747576,-4256036984158821012,1361196712.740736,15564,-2900,-2196,nan,0.000000
2,5,9,15,5720467,174747576,-4256036984158818391,1361196712.740736,15508,-3628,-1516,nan,0.000000
2,5,9,15,5720467,174747576,-4256036984158815770,1361196712.740736,16284,-2236,-2380,nan,0.000000
2,5,9,15,5720467,174747576,-4256036984158813149,1361196712.740736,15076,-292,-2140,nan,0.000000
2,5,9,15,5720467,174747576,-4256036984158810528,1361196712.740736,16176,-972,-2716,nan,0.000000
2,5,10,15,5720467,174747608,-4256036984158807907,1361196712.741728,16132,-2220,-2776,nan,0.000000
2,5,10,15,5720467,174747608,-4256036984158805286,1361196712.741728,16220,-1096,-3480,nan,0.000000
2,5,10,15,5720467,174747608,-4256036984158802665,1361196712.741728,15136,-928,-2596,nan,0.000000
2,5,10,15,5720467,174747608,-4256036984158800044,1361196712.741728,16144,-1784,-2532,nan,0.000000
2,5,10,15,5720467,174747608,-4256036984158797423,1361196712.741728,15784,-1576,-3040,nan,0.000000
2,5,11,15,5720467,174747639,-4256036984158794802,1361196712.742690,15380,80,-3420,nan,0.000000
2,5,11,15,5720467,174747639,-4256036984158792181,1361196712.742690,15744,-300,-3664,nan,0.000000
2,5,11,15,5720467,174747639,-4256036984158789560,1361196712.742690,15548,-668,-3568,nan,0.000000
2,5,11,15,5720467,174747639,-4256036984158786939,1361196712.742690,15476,12,-4248,nan,0.000000
2,5,11,15,5720467,174747639,-4256036984158784318,1361196712.742690,16996,364,-4412,nan,0.000000
2,5,12,15,5720467,174747672,-4256036984158781697,1361196712.743382,16932,-472,-4212,nan,0.000000
2,5,12,15,5720467,174747672,-4256036984158779076,1361196712.743382,15188,-1480,-2144,nan,0.000000
2,5,12,15,5720467,174747672,-4256036984158776455,1361196712.743382,15756,-1776,-144,nan,0.000000
2,5,12,15,5720467,174747672,-4256036984158773834,1361196712.743382,16836,-1504,-928,nan,0.000000
2,5,12,15,5720467,174747672,-4256036984158771213,1361196712.743382,15096,-3156,-320,nan,0.000000
2,5,13,15,5720467,174747703,-4256036984158768592,1361196712.744718,14904,-3944,-1724,nan,0.000000
2,5,13,15,5720467,174747703,-4256036984158765971,1361196712.744718,15036,-4032,-2612,nan,0.000000
2,5,13,15,5720467,174747703,-4256036984158763350,1361196712.744718,14732,-3876,-2548,nan,0.000000
2,5,13,15,5720467,174747703,-4256036984158760729,1361196712.744718,15472,-4112,-3092,nan,0.000000
2,5,13,15,5720467,174747703,-4256036984158758108,1361196712.744718,15780,-5132,-3936,nan,0.000000
2,5,14,15,5720467,174747736,-4256036984158755487,1361196715.210890,18012,-3856,-3816,nan,0.000000
2,5,14,15,5720467,174747736,-4256036984158752866,1361196715.210890,15316,308,332,nan,0.000000
2,5,14,15,5720467,174747736,-4256036984158750245,1361196715.210890,17528,-2160,-2816,nan,0.000000
2,5,14,15,5720467,174747736,-4256036984158747624,1361196715.210890,14684,-4424,-2128,nan,0.000000
2,5,14,15,5720467,174747736,-4256036984158745003,1361196715.210890,13832,-1804,-2592,nan,0.000000
1,5,15,0,5801721,174828579,5476715804319488241,1361196715.212771,14616,-2540,-3516,nan,0.000000
1,5,15,1,5801721,174828579,5476715804319490862,1361196715.212771,14892,-2844,-3436,nan,0.000000
2,5,0,1,5801721,174828610,5476715804319493483,1361196715.213439,15408,-3372,-3200,nan,0.000000
2,5,0,1,5801721,174828610,5476715804319496104,1361196715.213439,18900,-4724,-4272,nan,0.000000
2,5,0,1,5801721,174828610,5476715804319498725,1361196715.213439,18760,-1132,-504,nan,0.000000
2,5,0,1,5801721,174828610,5476715804319501346,1361196715.213439,13152,-1820,1256,nan,0.000000
2,5,0,1,5801721,174828610,5476715804319503967,1361196715.213439,17412,-608,-1744,nan,0.000000
2,5,1,1,5801721,174828642,5476715804319506588,1361196715.214710,14556,-3080,-1404,nan,0.000000
2,5,1,1,5801721,174828642,5476715804319509209,1361196715.214710,14104,-4276,-1816,nan,0.000000
2,5,1,1,5801721,174828642,5476715804319511830,1361196715.214710,14448,-4432,-2376,nan,0.000000
2,5,1,1,5801721,174828642,5476715804319514451,1361196715.214710,14652,-4312,-2252,nan,0.000000
2,5,1,1,5801721,174828642,5476715804319517072,1361196715.214710,16712,-2808,-3148,nan,0.000000
2,5,2,1,5801721,174828675,5476715804319519693,1361196715.215788,20812,-3340,-2000,nan,0.000000
2,5,2,1,5801721,174828675,5476715804319522314,1361196715.215788,11976,-1108,884,nan,0.000000
2,5,2,1,5801721,174828675,5476715804319524935,1361196715.215788,17908,-2412,-3272,nan,0.000000
2,5,2,1,5801721,174828675,5476715804319527556,1361196715.215788,14920,-2932,-1756,nan,0.000000
2,5,2,1,5801721,174828675,5476715804319530177,1361196715.215788,15308,-1560,-1932,nan,0.000000
2,5,3,1,5801721,174828706,5476715804319532798,1361196715.216665,15636,-2448,-2700,nan,0.000000
2,5,3,1,5801721,174828706,5476715804319535419,1361196715.216665,15720,-2388,-2140,nan,0.000000
2,5,3,1,5801721,174828706,5476715804319538040,1361196715.216665,15720,-1508,-2836,nan,0.000000
2,5,3,1,5801721,174828706,5476715804319540661,1361196715.216665,16548,-2024,-2440,nan,0.000000
2,5,3,1,5801721,174828706,5476715804319543282,1361196715.216665,15660,-3916,1584,nan,0.000000
2,5,4,1,5801721,174828738,5476715804319545903,1361196715.217722,14692,-2400,300,nan,0.000000
2,5,4,1,5801721,174828738,5476715804319548524,1361196715.217722,16508,-2716,420,nan,0.000000
2,5,4,1,5801721,174828738,5476715804319551145,1361196715.217722,16140,-4616,216,nan,0.000000
2,5,4,1,5801721,174828738,5476715804319553766,1361196715.217722,14948,-4048,568,nan,0.000000
2,5,4,1,5801721,174828738,5476715804319556387,1361196715.217722,16516,-3440,328,nan,0.000000
2,5,5,1,5801721,174828770,5476715804319559008,1361196717.690989,15804,-3704,976,nan,0.000000
2,5,5,1,5801721,174828770,5476715804319561629,1361196717.690989,15596,-4336,1264,nan,0.000000
2,5,5,1,5801721,174828770,5476715804319564250,1361196717.690989,15412,-4424,1292,nan,0.000000
2,5,5,1,5801721,174828770,5476715804319566871,1361196717.690989,15360,-4536,1704,nan,0.000000
2,5,5,1,5801721,174828770,5476715804319569492,1361196717.690989,15280,-4364,1012,nan,0.000000
1,5,6,0,5882978,174909840,-1151776982053367805,1361196717.692670,15748,-3704,-128,nan,0.000000
1,5,6,0,5882978,174909840,-1151776982053365184,1361196717.692670,15020,-2160,-1580,nan,0.000000
2,5,7,0,5882978,174909872,-1151776982053362563,1361196717.693379,17800,-2644,-3292,nan,0.000000
2,5,7,0,5882978,174909872,-1151776982053359942,1361196717.693379,16928,-2856,-1840,nan,0.000000
2,5,7,0,5882978,174909872,-1151776982053357321,1361196717.693379,14204,-4,-2256,nan,0.000000
2,5,7,0,5882978,174909872,-1151776982053354700,1361196717.693379,15520,-2608,-2292,nan,0.000000
2,5,7,0,5882978,174909872,-1151776982053352079,1361196717.693379,15440,-2892,-2220,nan,0.000000
2,5,8,0,5882978,174909904,-1151776982053349458,1361196717.694627,15048,-2544,-1948,nan,0.000000
2,5,8,0,5882978,174909904,-1151776982053346837,1361196717.694627,15044,-3056,-2944,nan,0.000000
2,5,8,0,5882978,174909904,-1151776982053344216,1361196717.694627,15804,-3560,-2596,nan,0.000000
2,5,8,0,5882978,174909904,-1151776982053341595,1361196717.694627,17092,-4052,-4008,nan,0.000000
2,5,8,0,5882978,174909904,-1151776982053338974,1361196717.694627,18484,-2628,-1760,nan,0.000000
2,5,9,0,5882978,174909936,-1151776982053336353,1361196717.695338,15472,-1208,1792,nan,0.000000
2,5,9,0,5882978,174909936,-1151776982053333732,1361196717.695338,16148,-764,-636,nan,0.000000
2,5,9,0,5882978,174909936,-1151776982053331111,1361196717.695338,15888,-820,-1336,nan,0.000000
2,5,9,0,5882978,174909936,-1151776982053328490,1361196717.695338,13764,-4116,-1160,nan,0.000000
2,5,9,0,5882978,174909936,-1151776982053325869,1361196717.695338,15152,-4084,-1520,nan,0.000000
2,5,10,0,5882978,174909968,-1151776982053323248,1361196717.696644,14504,-4128,-2632,nan,0.000000
2,5,10,0,5882978,174909968,-1151776982053320627,1361196717.696644,14216,-4916,-2276,nan,0.000000
2,5,10,0,5882978,174909968,-1151776982053318006,1361196717.696644,15328,-4124,-2800,nan,0.000000
2,5,10,0,5882978,174909968,-1151776982053315385,1361196717.696644,19080,-4104,-4324,nan,0.000000
2,5,10,0,5882978,174909968,-1151776982053312764,1361196717.696644,16556,-544,804,nan,0.000000
2,5,11,0,5882978,174910000,-1151776982053310143,1361196717.697599,18800,-1452,-2636,nan,0.000000
2,5,11,0,5882978,174910000,-1151776982053307522,1361196717.697599,13564,-5372,-308,nan,0.000000
2,5,11,0,5882978,174910000,-1151776982053304901,1361196717.697599,14240,-1816,-2736,nan,0.000000
2,5,11,0,5882978,174910000,-1151776982053302280,1361196717.697599,14712,-1940,-3092,nan,0.000000
2,5,11,0,5882978,174910000,-1151776982053299659,1361196717.697599,14484,-2656,-3060,nan,0.000000
2,5,12,0,5882978,174910032,-1151776982053297038,1361196720.170968,14928,-2512,-3740,nan,0.000000
2,5,12,0,5882978,174910032,-1151776982053294417,1361196720.170968,15072,-3024,-3708,nan,0.000000
2,5,12,0,5882978,174910032,-1151776982053291796,1361196720.170968,18776,-4020,-4892,nan,0.000000
2,5,12,0,5882978,174910032,-1151776982053289175,1361196720.170968,18584,-1304,-2052,nan,0.000000
2,5,12,0,5882978,174910032,-1151776982053286554,1361196720.170968,13092,-576,212,nan,0.000000
1,5,13,0,5964234,174991099,-8867252363023719183,1361196720.172628,14408,-1748,-1408,nan,0.000000
1,5,13,0,5964234,174991099,-8867252363023716562,1361196720.172628,15596,-2404,-860,nan,0.000000
2,5,14,0,5964234,174991131,-8867252363023713941,1361196720.173030,15360,-4140,-1704,nan,0.000000
2,5,14,0,5964234,174991131,-8867252363023711320,1361196720.173030,15220,-3256,-1916,nan,0.000000
2,5,14,0,5964234,174991131,-8867252363023708699,1361196720.173030,16480,-2896,-1664,nan,0.000000
2,5,14,0,5964234,174991131,-8867252363023706078,1361196720.173030,15840,-2972,-1052,nan,0.000000
2,5,14,0,5964234,174991131,-8867252363023703457,1361196720.173030,15224,100,-2088,nan,0.000000
2,5,15,0,5964234,174991163,-8867252363023700836,1361196720.174601,15092,-1520,-1472,nan,0.000000
2,5,15,0,5964234,174991163,-8867252363023698215,1361196720.174601,18356,-2368,-2836,nan,0.000000
2,5,15,0,5964234,174991163,-8867252363023695594,1361196720.174601,14812,-720,-2480,nan,0.000000
2,5,15,0,5964234,174991163,-8867252363023692973,1361196720.174601,15496,-2424,-2400,nan,0.000000
2,5,15,0,5964234,174991163,-8867252363023690352,1361196720.174601,15728,-2476,-2432,nan,0.000000
2,5,0,0,5964234,174991195,-8867252363023687731,1361196720.175672,15604,-1468,-3160,nan,0.000000
2,5,0,0,5964234,174991195,-8867252363023685110,1361196720.175672,15728,-2004,-3256,nan,0.000000
2,5,0,0,5964234,174991195,-8867252363023682489,1361196720.175672,15552,-1364,-3476,nan,0.000000
2,5,0,0,5964234,174991195,-8867252363023679868,1361196720.175672,15680,-636,-4440,nan,0.000000
2,5,0,0,5964234,174991195,-8867252363023677247,1361196720.175672,15692,-188,-3984,nan,0.000000
2,5,1,0,5964234,174991227,-8867252363023674626,1361196720.176581,19500,-680,-1416,nan,0.000000
2,5,1,0,5964234,174991227,-8867252363023672005,1361196720.176581,13068,-2976,-1380,nan,0.000000
2,5,1,0,5964234,174991227,-8867252363023669384,1361196720.176581,17660,-3808,-208,nan,0.000000
2,5,1,0,5964234,174991227,-8867252363023666763,1361196720.176581,14100,-4768,-828,nan,0.000000
2,5,1,0,5964234,174991227,-8867252363023664142,1361196720.176581,14508,-4708,-1208,nan,0.000000
2,5,2,0,5964234,174991259,-8867252363023661521,1361196720.177114,14768,-4408,-2216,nan,0.000000
2,5,2,0,5964234,174991259,-8867252363023658900,1361196720.177114,14812,-4336,-2344,nan,0.000000
2,5,2,0,5964234,174991259,-8867252363023656279,1361196720.177114,15356,-4608,-3312,nan,0.000000
2,5,2,0,5964234,174991259,-8867252363023653658,1361196720.177114,15644,-5616,-3700,nan,0.000000
2,5,2,0,5964234,174991259,-8867252363023651037,1361196720.177114,19396,-3236,-3512,nan,0.000000
2,5,3,0,5964234,174991291,-8867252363023648416,1361196722.650731,15460,1040,440,nan,0.000000
2,5,3,0,5964234,174991291,-8867252363023645795,1361196722.650731,17052,-5280,-2416,nan,0.000000
2,5,3,0,5964234,174991291,-8867252363023643174,1361196722.650731,13824,-2672,-1816,nan,0.000000
2,5,3,0,5964234,174991291,-8867252363023640553,1361196722.650731,14144,-376,-3300,nan,0.000000
2,5,3,0,5964234,174991291,-8867252363023637932,1361196722.650731,15120,-2680,-3928,nan,0.000000
1,5,4,0,6045490,175072361,-8001101122921908223,1361196722.652590,15004,-1144,-4524,nan,0.000000
1,5,4,0,6045490,175072361,-8001101122921905602,1361196722.652590,15192,-3208,-4436,nan,0.000000
2,5,5,0,6045490,175072393,-8001101122921902981,1361196722.653003,18140,-4764,-4472,nan,0.000000
2,5,5,0,6045490,175072393,-8001101122921900360,1361196722.653003,19600,764,-1096,nan,0.000000
2,5,5,0,6045490,175072393,-8001101122921897739,1361196722.653003,13168,-1464,344,nan,0.000000
2,5,5,0,6045490,175072393,-8001101122921895118,1361196722.653003,17720,1196,-2832,nan,0.000000
2,5,5,0,6045490,175072393,-8001101122921892497,1361196722.653003,14648,-3212,-1220,nan,0.000000
2,5,6,0,6045490,175072424,-8001101122921889876,1361196722.654713,14272,-3492,-1924,nan,0.000000
2,5,6,0,6045490,175072424,-8001101122921887255,1361196722.654713,14540,-4160,-2556,nan,0.000000
2,5,6,0,6045490,175072424,-8001101122921884634,1361196722.654713,14508,-4800,-2612,nan,0.000000
2,5,6,0,6045490,175072424,-8001101122921882013,1361196722.654713,15484,-3048,-3032,nan,0.000000
2,5,6,0,6045490,175072424,-8001101122921879392,1361196722.654713,20536,-4132,-2680,nan,0.000000
2,5,7,0,6045490,175072457,-8001101122921876771,1361196722.655550,13628,-1944,288,nan,0.000000
2,5,7,0,6045490,175072457,-8001101122921874150,1361196722.655550,15272,-1248,-1152,nan,0.000000
2,5,7,0,6045490,175072457,-8001101122921871529,1361196722.655550,17780,-4776,-2388,nan,0.000000
2,5,7,0,6045490,175072457,-8001101122921868908,1361196722.655550,14464,-2600,-1224,nan,0.000000
2,5,7,0,6045490,175072457,-8001101122921866287,1361196722.655550,15448,-1828,-1644,nan,0.000000
2,5,8,0,6045490,175072488,-8001101122921863666,1361196722.656563,15480,-3336,-2292,nan,0.000000
2,5,8,0,6045490,175072488,-8001101122921861045,1361196722.656563,15540,-2800,-1524,nan,0.000000
2,5,8,0,6045490,175072488,-8001101122921858424,1361196722.656563,15924,-2136,-2036,nan,0.000000
2,5,8,0,6045490,175072488,-8001101122921855803,1361196722.656563,16516,-1980,-1832,nan,0.000000
2,5,8,0,6045490,175072488,-8001101122921853182,1361196722.656563,15664,-2836,836,nan,0.000000
2,5,9,0,6045490,175072521,-8001101122921850561,1361196722.657499,15448,-2920,1692,nan,0.000000
2,5,9,0,6045490,175072521,-8001101122921847940,1361196722.657499,16152,-2724,1256,nan,0.000000
2,5,9,0,6045490,175072521,-8001101122921845319,1361196722.657499,15488,-4080,1104,nan,0.000000
2,5,9,0,6045490,175072521,-8001101122921842698,1361196722.657499,15160,-3732,1748,nan,0.000000
2,5,9,0,6045490,175072521,-8001101122921840077,1361196722.657499,16096,-3084,2116,nan,0.000000
2,5,10,0,6045490,175072552,-8001101122921837456,1361196725.130879,15960,-3508,1068,nan,0.000000
2,5,10,0,6045490,175072552,-8001101122921834835,1361196725.130879,15796,-4560,1788,nan,0.000000
2,5,10,0,6045490,175072552,-8001101122921832214,1361196725.130879,15432,-4296,1968,nan,0.000000
2,5,10,0,6045490,175072552,-8001101122921829593,1361196725.130879,15276,-4988,1788,nan,0.000000
2,5,10,0,6045490,175072552,-8001101122921826972,1361196725.130879,15188,-4896,1484,nan,0.000000
1,5,11,0,6126747,175153623,-286487724507190268,1361196725.132589,16296,-2696,-444,nan,0.000000
1,5,11,0,6126747,175153623,-286487724507187647,1361196725.132589,15524,-2380,-1508,nan,0.000000
2,5,12,0,6126747,175153655,-286487724507185026,1361196725.132992,17812,-3184,-2616,nan,0.000000
2,5,12,0,6126747,175153655,-286487724507182405,1361196725.132992,14932,-1420,-1812,nan,0.000000
2,5,12,0,6126747,175153655,-286487724507179784,1361196725.132992,14160,-2632,-2512,nan,0.000000
2,5,12,0,6126747,175153655,-286487724507177163,1361196725.132992,15948,-3368,-2212,nan,0.000000
2,5,12,0,6126747,175153655,-286487724507174542,1361196725.132992,15216,-3016,-2340,nan,0.000000
2,5,13,0,6126747,175153687,-286487724507171921,1361196725.134574,14824,-2628,-2652,nan,0.000000
2,5,13,0,6126747,175153687,-286487724507169300,1361196725.134574,15244,-3832,-3048,nan,0.000000
2,5,13,0,6126747,175153687,-286487724507166679,1361196725.134574,16148,-3200,-3204,nan,0.000000
2,5,13,0,6126747,175153687,-286487724507164058,1361196725.134574,19204,-4320,-2856,nan,0.000000
2,5,13,0,6126747,175153687,-286487724507161437,1361196725.134574,16744,-1016,460,nan,0.000000
2,5,14,0,6126747,175153719,-286487724507158816,1361196725.135425,15488,-2000,436,nan,0.000000
2,5,14,0,6126747,175153719,-286487724507156195,1361196725.135425,15720,228,-2072,nan,0.000000
2,5,14,0,6126747,175153719,-286487724507153574,1361196725.135425,14764,-3224,-672,nan,0.000000
2,5,14,0,6126747,175153719,-286487724507150953,1361196725.135425,14332,-4012,-1568,nan,0.000000
2,5,14,0,6126747,175153719,-286487724507148332,1361196725.135425,14448,-4044,-2408,nan,0.000000
2,5,15,0,6126747,175153751,-286487724507145711,1361196725.136556,14624,-3852,-2636,nan,0.000000
2,5,15,0,6126747,175153751,-286487724507143090,1361196725.136556,15944,-5164,-3128,nan,0.000000
