type,ID,seq,packetLoss,nodeTimestamp,bsTimestamp,syncTimestamp,systemTime,accelX,accelY,accelZ,cannula,voltage
1,5,13,0,143679,85279937,4328095728316662801,1361193982.316503,13128,8984,4576,nan,0.000000
1,5,13,0,143679,85279937,4328095728316665422,1361193982.316503,12988,8848,4400,nan,0.000000
2,5,14,0,143679,85279969,4328095728316668043,1361193982.316865,13176,8680,4464,nan,0.000000
2,5,14,0,143679,85279969,4328095728316670664,1361193982.316865,13136,8748,4280,nan,0.000000
2,5,14,0,143679,85279969,4328095728316673285,1361193982.316865,13204,8796,4172,nan,0.000000
2,5,14,0,143679,85279969,4328095728316675906,1361193982.316865,13128,8820,4104,nan,0.000000
2,5,14,0,143679,85279969,4328095728316678527,1361193982.316865,13200,8900,4176,nan,0.000000
2,5,15,0,143679,85280001,4328095728316681148,1361193982.318509,13212,8752,4108,nan,0.000000
2,5,15,0,143679,85280001,4328095728316683769,1361193982.318509,13212,8796,4144,nan,0.000000
2,5,15,0,143679,85280001,4328095728316686390,1361193982.318509,13204,8812,4204,nan,0.000000
2,5,15,0,143679,85280001,4328095728316689011,1361193982.318509,13208,8832,4084,nan,0.000000
2,5,15,0,143679,85280001,4328095728316691632,1361193982.318509,13148,8896,4112,nan,0.000000
2,5,0,0,143679,85280033,4328095728316694253,1361193982.318995,13048,8812,4144,nan,0.000000
2,5,0,0,143679,85280033,4328095728316696874,1361193982.318995,13112,8816,4188,nan,0.000000
2,5,0,0,143679,85280033,4328095728316699495,1361193982.318995,13128,8928,4244,nan,0.000000
2,5,0,0,143679,85280033,4328095728316702116,1361193982.318995,13156,8988,4184,nan,0.000000
2,5,0,0,143679,85280033,4328095728316704737,1361193982.318995,13112,8952,4216,nan,0.000000
2,5,1,0,143679,85280065,4328095728316707358,1361193982.320421,13080,8960,4184,nan,0.000000
2,5,1,0,143679,85280065,4328095728316709979,1361193982.320421,13128,8944,4136,nan,0.000000
2,5,1,0,143679,85280065,4328095728316712600,1361193982.320421,13072,8968,4236,nan,0.000000
2,5,1,0,143679,85280065,4328095728316715221,1361193982.320421,13060,8904,4288,nan,0.000000
2,5,1,0,143679,85280065,4328095728316717842,1361193982.320421,13040,8864,4396,nan,0.000000
2,5,2,0,143679,85280097,4328095728316720463,1361193982.320887,13000,8896,4308,nan,0.000000
2,5,2,0,143679,85280097,4328095728316723084,1361193982.320887,13064,8956,4328,nan,0.000000
2,5,2,0,143679,85280097,4328095728316725705,1361193982.320887,13020,8892,4508,nan,0.000000
2,5,2,0,143679,85280097,4328095728316728326,1361193982.320887,13072,9108,4376,nan,0.000000
2,5,2,0,143679,85280097,4328095728316730947,1361193982.320887,12940,8904,4484,nan,0.000000
2,5,3,0,143679,85280129,4328095728316733568,1361193984.794569,12936,9004,4424,nan,0.000000
2,5,3,0,143679,85280129,4328095728316736189,1361193984.794569,12860,8720,4428,nan,0.000000
2,5,3,0,143679,85280129,4328095728316738810,1361193984.794569,12988,9176,4564,nan,0.000000
2,5,3,0,143679,85280129,4328095728316741431,1361193984.794569,12796,9164,4492,nan,0.000000
2,5,3,0,143679,85280129,4328095728316744052,1361193984.794569,12796,9116,5024,nan,0.000000
1,5,4,0,224927,85361170,5481179960711464977,1361193984.795097,12644,9448,4944,nan,0.000000
1,5,4,0,224927,85361170,5481179960711467598,1361193984.795097,12536,9572,4912,nan,0.000000
2,5,5,0,224927,85361201,5481179960711470219,1361193984.796516,12528,9400,5064,nan,0.000000
2,5,5,0,224927,85361201,5481179960711472840,1361193984.796516,12556,9404,5072,nan,0.000000
2,5,5,0,224927,85361201,5481179960711475461,1361193984.796516,12536,9468,5004,nan,0.000000
2,5,5,0,224927,85361201,5481179960711478082,1361193984.796516,12520,9460,5036,nan,0.000000
2,5,5,0,224927,85361201,5481179960711480703,1361193984.796516,12556,9408,4976,nan,0.000000
2,5,6,0,224927,85361234,5481179960711483324,1361193984.797085,12564,9396,4944,nan,0.000000
2,5,6,0,224927,85361234,5481179960711485945,1361193984.797085,12596,9444,5024,nan,0.000000
2,5,6,0,224927,85361234,5481179960711488566,1361193984.797085,12564,9368,5032,nan,0.000000
2,5,6,0,224927,85361234,5481179960711491187,1361193984.797085,12556,9400,5032,nan,0.000000
2,5,6,0,224927,85361234,5481179960711493808,1361193984.797085,12524,9348,5144,nan,0.000000
2,5,7,0,224927,85361265,5481179960711496429,1361193984.798220,12472,9176,5304,nan,0.000000
2,5,7,0,224927,85361265,5481179960711499050,1361193984.798220,12412,9264,5332,nan,0.000000
2,5,7,0,224927,85361265,5481179960711501671,1361193984.798220,12500,9344,5344,nan,0.000000
2,5,7,0,224927,85361265,5481179960711504292,1361193984.798220,12500,9336,5460,nan,0.000000
2,5,7,0,224927,85361265,5481179960711506913,1361193984.798220,12480,9236,5372,nan,0.000000
2,5,8,0,224927,85361298,5481179960711509534,1361193984.798864,12548,9336,5428,nan,0.000000
2,5,8,0,224927,85361298,5481179960711512155,1361193984.798864,12416,9460,5272,nan,0.000000
2,5,8,0,224927,85361298,5481179960711514776,1361193984.798864,12416,9432,5384,nan,0.000000
2,5,8,0,224927,85361298,5481179960711517397,1361193984.798864,12384,9508,5424,nan,0.000000
2,5,8,0,224927,85361298,5481179960711520018,1361193984.798864,12384,9472,5316,nan,0.000000
2,5,9,0,224927,85361329,5481179960711522639,1361193984.800243,12428,9360,5388,nan,0.000000
2,5,9,0,224927,85361329,5481179960711525260,1361193984.800243,12468,9504,5320,nan,0.000000
2,5,9,0,224927,85361329,5481179960711527881,1361193984.800243,12392,9544,5320,nan,0.000000
2,5,9,0,224927,85361329,5481179960711530502,1361193984.800243,12240,9588,5220,nan,0.000000
2,5,9,0,224927,85361329,5481179960711533123,1361193984.800243,12304,9508,5244,nan,0.000000
2,5,10,0,224927,85361362,5481179960711535744,1361193987.274531,12412,9512,5220,nan,0.000000
2,5,10,0,224927,85361362,5481179960711538365,1361193987.274531,12344,9532,5148,nan,0.000000
2,5,10,0,224927,85361362,5481179960711540986,1361193987.274531,12384,9568,5248,nan,0.000000
2,5,10,0,224927,85361362,5481179960711543607,1361193987.274531,12548,9608,5204,nan,0.000000
2,5,10,0,224927,85361362,5481179960711546228,1361193987.274531,12484,9576,5180,nan,0.000000
1,5,11,0,306175,85442422,2023308263150347284,1361193987.275142,12308,9564,5084,nan,0.000000
1,5,11,0,306175,85442422,2023308263150349905,1361193987.275142,12368,9604,5124,nan,0.000000
2,5,12,0,306175,85442453,2023308263150352526,1361193987.276484,12392,9584,5120,nan,0.000000
2,5,12,0,306175,85442453,2023308263150355147,1361193987.276484,12432,9508,5032,nan,0.000000
2,5,12,0,306175,85442453,2023308263150357768,1361193987.276484,12424,9584,5108,nan,0.000000
2,5,12,0,306175,85442453,2023308263150360389,1361193987.276484,12488,9580,4984,nan,0.000000
2,5,12,0,306175,85442453,2023308263150363010,1361193987.276484,12440,9540,5108,nan,0.000000
2,5,13,0,306175,85442486,2023308263150365631,1361193987.277070,12336,9636,4940,nan,0.000000
2,5,13,0,306175,85442486,2023308263150368252,1361193987.277070,12452,9568,4848,nan,0.000000
2,5,13,0,306175,85442486,2023308263150370873,1361193987.277070,12572,9424,5056,nan,0.000000
2,5,13,0,306175,85442486,2023308263150373494,1361193987.277070,12664,9504,4976,nan,0.000000
2,5,13,0,306175,85442486,2023308263150376115,1361193987.277070,12456,9840,4776,nan,0.000000
2,5,14,0,306175,85442517,2023308263150378736,1361193987.278342,12368,9532,4764,nan,0.000000
2,5,14,0,306175,85442517,2023308263150381357,1361193987.278342,12528,9420,4868,nan,0.000000
2,5,14,0,306175,85442517,2023308263150383978,1361193987.278342,12648,9408,4696,nan,0.000000
2,5,14,0,306175,85442517,2023308263150386599,1361193987.278342,12644,9480,4584,nan,0.000000
2,5,14,0,306175,85442517,2023308263150389220,1361193987.278342,12668,9484,4472,nan,0.000000
2,5,15,0,306175,85442550,2023308263150391841,1361193987.278879,12704,9432,4516,nan,0.000000
2,5,15,0,306175,85442550,2023308263150394462,1361193987.278879,12740,9436,4564,nan,0.000000
2,5,15,0,306175,85442550,2023308263150397083,1361193987.278879,12696,9460,4564,nan,0.000000
2,5,15,0,306175,85442550,2023308263150399704,1361193987.278879,12656,9356,4576,nan,0.000000
2,5,15,0,306175,85442550,2023308263150402325,1361193987.278879,12744,9460,4564,nan,0.000000
2,5,0,0,306175,85442585,2023308263150404946,1361193987.280366,12712,9512,4468,nan,0.000000
2,5,0,0,306175,85442585,2023308263150407567,1361193987.280366,12700,9420,4436,nan,0.000000
2,5,0,0,306175,85442585,2023308263150410188,1361193987.280366,12716,9536,4472,nan,0.000000
2,5,0,0,306175,85442585,2023308263150412809,1361193987.280366,12720,9452,4440,nan,0.000000
2,5,0,0,306175,85442585,2023308263150415430,1361193987.280366,12720,9540,4484,nan,0.000000
1,5,2,0,387424,85604929,-3453759379852919791,1361193992.234562,12632,9336,4592,nan,0.000000
1,5,2,0,387424,85604929,-3453759379852917170,1361193992.234562,12748,9336,4656,nan,0.000000
2,5,3,0,387424,85604961,-3453759379852914549,1361193992.236120,12808,9292,4520,nan,0.000000
2,5,3,0,387424,85604961,-3453759379852911928,1361193992.236120,12740,9420,4604,nan,0.000000
2,5,3,0,387424,85604961,-3453759379852909307,1361193992.236120,12840,9304,4632,nan,0.000000
2,5,3,0,387424,85604961,-3453759379852906686,1361193992.236120,12752,9232,4512,nan,0.000000
2,5,3,0,387424,85604961,-3453759379852904065,1361193992.236120,12804,9432,4456,nan,0.000000
2,5,4,0,387424,85604993,-3453759379852901444,1361193992.238169,12716,9396,4304,nan,0.000000
2,5,4,0,387424,85604993,-3453759379852898823,1361193992.238169,12804,9416,4288,nan,0.000000
2,5,4,0,387424,85604993,-3453759379852896202,1361193992.238169,12816,9508,4244,nan,0.000000
2,5,4,0,387424,85604993,-3453759379852893581,1361193992.238169,12824,9528,4176,nan,0.000000
2,5,4,0,387424,85604993,-3453759379852890960,1361193992.238169,12896,9472,4060,nan,0.000000
2,5,5,0,387424,85605061,-3453759379852888339,1361193992.239238,12888,9516,4040,nan,0.000000
2,5,5,0,387424,85605061,-3453759379852885718,1361193992.239238,12656,9592,3928,nan,0.000000
2,5,5,0,387424,85605061,-3453759379852883097,1361193992.239238,12652,9552,3896,nan,0.000000
2,5,5,0,387424,85605061,-3453759379852880476,1361193992.239238,12632,9348,3912,nan,0.000000
2,5,5,0,387424,85605061,-3453759379852877855,1361193992.239238,12992,9844,3824,nan,0.000000
2,5,6,0,387424,85605093,-3453759379852875234,1361193992.240113,13884,9640,3852,nan,0.000000
2,5,6,0,387424,85605093,-3453759379852872613,1361193992.240113,13588,8756,3996,nan,0.000000
2,5,6,0,387424,85605093,-3453759379852869992,1361193992.240113,13832,8084,4056,nan,0.000000
2,5,6,0,387424,85605093,-3453759379852867371,1361193992.240113,15048,6984,4604,nan,0.000000
2,5,6,0,387424,85605093,-3453759379852864750,1361193992.240113,16248,2340,5724,nan,0.000000
2,5,7,0,387424,85605125,-3453759379852862129,1361193992.240804,15628,-1140,4608,nan,0.000000
2,5,7,0,387424,85605125,-3453759379852859508,1361193992.240804,15988,-620,2412,nan,0.000000
2,5,7,0,387424,85605125,-3453759379852856887,1361193992.240804,14308,-1596,2684,nan,0.000000
2,5,7,0,387424,85605125,-3453759379852854266,1361193992.240804,15440,-2388,1988,nan,0.000000
2,5,7,0,387424,85605125,-3453759379852851645,1361193992.240804,14904,-3852,2208,nan,0.000000
2,5,8,0,387424,85605157,-3453759379852849024,1361193992.242446,14692,-5392,2168,nan,0.000000
2,5,8,0,387424,85605157,-3453759379852846403,1361193992.242446,13524,-6516,2736,nan,0.000000
2,5,8,0,387424,85605157,-3453759379852843782,1361193992.242446,13220,-7052,4480,nan,0.000000
2,5,8,0,387424,85605157,-3453759379852841161,1361193992.242446,22424,-1040,984,nan,0.000000
2,5,8,0,387424,85605157,-3453759379852838540,1361193992.242446,17176,-32,-856,nan,0.000000
1,5,9,0,468672,85605189,-5761637850236553208,1361193992.243133,13248,-400,-564,nan,0.000000
1,5,9,15,468672,85605189,-5761637850236550587,1361193992.243133,15364,-1800,-1692,nan,0.000000
2,5,10,15,468672,85605221,-5761637850236547966,1361193992.244367,14996,-3092,-248,nan,0.000000
2,5,10,15,468672,85605221,-5761637850236545345,1361193992.244367,14824,-3468,-1512,nan,0.000000
2,5,10,15,468672,85605221,-5761637850236542724,1361193992.244367,15416,-4208,-3168,nan,0.000000
2,5,10,15,468672,85605221,-5761637850236540103,1361193992.244367,18512,-5140,-4244,nan,0.000000
2,5,10,15,468672,85605221,-5761637850236537482,1361193992.244367,20808,-860,3496,nan,0.000000
2,5,11,15,468672,85605253,-5761637850236534861,1361193992.245054,14244,-372,3584,nan,0.000000
2,5,11,15,468672,85605253,-5761637850236532240,1361193992.245054,16608,952,-1048,nan,0.000000
2,5,11,15,468672,85605253,-5761637850236529619,1361193992.245054,13532,-4104,436,nan,0.000000
2,5,11,15,468672,85605253,-5761637850236526998,1361193992.245054,14448,-4872,-520,nan,0.000000
2,5,11,15,468672,85605253,-5761637850236524377,1361193992.245054,15192,-3200,-520,nan,0.000000
2,5,12,15,468672,85605285,-5761637850236521756,1361193992.246506,14644,-4292,196,nan,0.000000
2,5,12,15,468672,85605285,-5761637850236519135,1361193992.246506,17440,-2468,1552,nan,0.000000
2,5,12,15,468672,85605285,-5761637850236516514,1361193992.246506,16184,360,532,nan,0.000000
2,5,12,15,468672,85605285,-5761637850236513893,1361193992.246506,19192,-5224,-916,nan,0.000000
2,5,12,15,468672,85605285,-5761637850236511272,1361193992.246506,14236,-472,-1244,nan,0.000000
2,5,13,15,468672,85605317,-5761637850236508651,1361193992.247180,14800,-1220,-2332,nan,0.000000
2,5,13,15,468672,85605317,-5761637850236506030,1361193992.247180,16732,-836,-1444,nan,0.000000
2,5,13,15,468672,85605317,-5761637850236503409,1361193992.247180,15928,-1024,-1588,nan,0.000000
2,5,13,15,468672,85605317,-5761637850236500788,1361193992.247180,15192,-1464,-2856,nan,0.000000
2,5,13,15,468672,85605317,-5761637850236498167,1361193992.247180,15696,-1468,-3924,nan,0.000000
2,5,14,15,468672,85605349,-5761637850236495546,1361193992.247687,16912,-224,-4808,nan,0.000000
2,5,14,15,468672,85605349,-5761637850236492925,1361193992.247687,19020,-900,-1144,nan,0.000000
2,5,14,15,468672,85605349,-5761637850236490304,1361193992.247687,14728,-2516,2768,nan,0.000000
2,5,14,15,468672,85605349,-5761637850236487683,1361193992.247687,17600,-3496,80,nan,0.000000
2,5,14,15,468672,85605349,-5761637850236485062,1361193992.247687,11888,-4248,1244,nan,0.000000
2,5,15,15,468672,85605380,-5761637850236482441,1361193994.712384,14380,-4216,-684,nan,0.000000
2,5,15,15,468672,85605380,-5761637850236479820,1361193994.712384,15076,-6224,-1664,nan,0.000000
2,5,15,15,468672,85605380,-5761637850236477199,1361193994.712384,15192,-5708,-2740,nan,0.000000
2,5,15,15,468672,85605380,-5761637850236474578,1361193994.712384,15012,-6992,-1856,nan,0.000000
2,5,15,15,468672,85605380,-5761637850236471957,1361193994.712384,24864,-2108,236,nan,0.000000
1,5,0,0,549921,85686182,-9153090257640860419,1361193994.714154,16588,-7200,424,nan,0.000000
1,5,0,1,549921,85686182,-9153090257640857798,1361193994.714154,13356,-2056,-1624,nan,0.000000
2,5,1,1,549921,85686214,-9153090257640855177,1361193994.714816,13880,-2648,-1756,nan,0.000000
2,5,1,1,549921,85686214,-9153090257640852556,1361193994.714816,15144,-3780,-2972,nan,0.000000
2,5,1,1,549921,85686214,-9153090257640849935,1361193994.714816,16536,-5012,-4020,nan,0.000000
2,5,1,1,549921,85686214,-9153090257640847314,1361193994.714816,20288,-4028,-3384,nan,0.000000
2,5,1,1,549921,85686214,-9153090257640844693,1361193994.714816,16988,-2296,6560,nan,0.000000
2,5,2,1,549921,85686245,-9153090257640842072,1361193994.716198,15772,-1568,-1276,nan,0.000000
2,5,2,1,549921,85686245,-9153090257640839451,1361193994.716198,13676,-1724,-748,nan,0.000000
2,5,2,1,549921,85686245,-9153090257640836830,1361193994.716198,13316,-5624,-1024,nan,0.000000
2,5,2,1,549921,85686245,-9153090257640834209,1361193994.716198,14456,-5228,-1296,nan,0.000000
2,5,2,1,549921,85686245,-9153090257640831588,1361193994.716198,14072,-5272,-1928,nan,0.000000
2,5,3,1,549921,85686278,-9153090257640828967,1361193994.716909,14204,-6524,-1956,nan,0.000000
2,5,3,1,549921,85686278,-9153090257640826346,1361193994.716909,20324,-6560,80,nan,0.000000
2,5,3,1,549921,85686278,-9153090257640823725,1361193994.716909,15284,228,1920,nan,0.000000
2,5,3,1,549921,85686278,-9153090257640821104,1361193994.716909,16872,-9920,-2144,nan,0.000000
2,5,3,1,549921,85686278,-9153090257640818483,1361193994.716909,12740,-4844,292,nan,0.000000
2,5,4,1,549921,85686309,-9153090257640815862,1361193994.718068,15884,-2960,-640,nan,0.000000
2,5,4,1,549921,85686309,-9153090257640813241,1361193994.718068,14768,-5612,-1172,nan,0.000000
2,5,4,1,549921,85686309,-9153090257640810620,1361193994.718068,14124,-5116,-836,nan,0.000000
2,5,4,1,549921,85686309,-9153090257640807999,1361193994.718068,15064,-3840,-688,nan,0.000000
2,5,4,1,549921,85686309,-9153090257640805378,1361193994.718068,17592,-4732,-460,nan,0.000000
2,5,5,1,549921,85686342,-9153090257640802757,1361193994.718854,14212,-4920,4036,nan,0.000000
2,5,5,1,549921,85686342,-9153090257640800136,1361193994.718854,14808,-2208,3332,nan,0.000000
2,5,5,1,549921,85686342,-9153090257640797515,1361193994.718854,18200,-4836,1904,nan,0.000000
2,5,5,1,549921,85686342,-9153090257640794894,1361193994.718854,14060,-4260,1068,nan,0.000000
2,5,5,1,549921,85686342,-9153090257640792273,1361193994.718854,14624,-6268,2520,nan,0.000000
1,5,7,0,631170,86173694,-8645269803210553337,1361194009.592363,15708,-2416,-1572,nan,0.000000
1,5,7,0,631170,86173694,-8645269803210550716,1361194009.592363,16472,-3308,-1012,nan,0.000000
2,5,8,0,631170,86173726,-8645269803210548095,1361194009.594019,13860,-476,-1572,nan,0.000000
2,5,8,0,631170,86173726,-8645269803210545474,1361194009.594019,15300,-3160,-1712,nan,0.000000
2,5,8,0,631170,86173726,-8645269803210542853,1361194009.594019,14932,-4056,-1664,nan,0.000000
2,5,8,0,631170,86173726,-8645269803210540232,1361194009.594019,15112,-3844,-2324,nan,0.000000
2,5,8,0,631170,86173726,-8645269803210537611,1361194009.594019,16420,-4520,-2728,nan,0.000000
2,5,9,0,631170,86173758,-8645269803210534990,1361194009.595263,18648,-4436,-3892,nan,0.000000
2,5,9,0,631170,86173758,-8645269803210532369,1361194009.595263,18492,-1388,3524,nan,0.000000
2,5,9,0,631170,86173758,-8645269803210529748,1361194009.595263,14192,-1856,1588,nan,0.000000
2,5,9,0,631170,86173758,-8645269803210527127,1361194009.595263,15316,-1076,-1380,nan,0.000000
2,5,9,0,631170,86173758,-8645269803210524506,1361194009.595263,13244,-3720,-716,nan,0.000000
2,5,10,0,631170,86173790,-8645269803210521885,1361194009.596265,14728,-4360,-696,nan,0.000000
2,5,10,0,631170,86173790,-8645269803210519264,1361194009.596265,14520,-4804,-1948,nan,0.000000
2,5,10,0,631170,86173790,-8645269803210516643,1361194009.596265,15060,-5552,-1972,nan,0.000000
2,5,10,0,631170,86173790,-8645269803210514022,1361194009.596265,17540,-8200,-1188,nan,0.000000
2,5,10,0,631170,86173790,-8645269803210511401,1361194009.596265,20852,-1564,88,nan,0.000000
2,5,11,0,631170,86173822,-8645269803210508780,1361194009.598090,12368,1792,-272,nan,0.000000
2,5,11,0,631170,86173822,-8645269803210506159,1361194009.598090,17428,-7192,608,nan,0.000000
2,5,11,0,631170,86173822,-8645269803210503538,1361194009.598090,14236,-2020,-2216,nan,0.000000
2,5,11,0,631170,86173822,-8645269803210500917,1361194009.598090,13708,-2292,-2084,nan,0.000000
2,5,11,0,631170,86173822,-8645269803210498296,1361194009.598090,13856,-4484,-2780,nan,0.000000
2,5,12,0,631170,86173854,-8645269803210495675,1361194009.599027,15024,-4452,-3312,nan,0.000000
2,5,12,0,631170,86173854,-8645269803210493054,1361194009.599027,18668,-6636,-3832,nan,0.000000
2,5,12,0,631170,86173854,-8645269803210490433,1361194009.599027,17212,-652,2568,nan,0.000000
2,5,12,0,631170,86173854,-8645269803210487812,1361194009.599027,18436,740,456,nan,0.000000
2,5,12,0,631170,86173854,-8645269803210485191,1361194009.599027,14656,440,-520,nan,0.000000
2,5,13,0,631170,86173885,-8645269803210482570,1361194009.599746,14612,-5172,92,nan,0.000000
2,5,13,0,631170,86173885,-8645269803210479949,1361194009.599746,15620,-4404,-976,nan,0.000000
2,5,13,0,631170,86173885,-8645269803210477328,1361194009.599746,14712,-3080,-1428,nan,0.000000
2,5,13,0,631170,86173885,-8645269803210474707,1361194009.599746,16244,-3008,108,nan,0.000000
2,5,13,0,631170,86173885,-8645269803210472086,1361194009.599746,16884,-948,660,nan,0.000000
1,5,14,0,712417,86173917,3529921530597039104,1361194009.600470,16648,-1836,-2148,nan,0.000000
1,5,14,15,712417,86173917,3529921530597041725,1361194009.600470,16244,-736,-2500,nan,0.000000
2,5,15,15,712417,86173949,3529921530597044346,1361194009.600930,16176,40,-2140,nan,0.000000
2,5,15,15,712417,86173949,3529921530597046967,1361194009.600930,15712,-1288,-1832,nan,0.000000
2,5,15,15,712417,86173949,3529921530597049588,1361194009.600930,15464,192,-1976,nan,0.000000
2,5,15,15,712417,86173949,3529921530597052209,1361194009.600930,16136,52,-2800,nan,0.000000
2,5,15,15,712417,86173949,3529921530597054830,1361194009.600930,15720,-656,-2848,nan,0.000000
2,5,0,15,712417,86173981,3529921530597057451,1361194009.601912,15032,-1736,-3156,nan,0.000000
2,5,0,15,712417,86173981,3529921530597060072,1361194009.601912,16424,-1124,-4104,nan,0.000000
2,5,0,15,712417,86173981,3529921530597062693,1361194009.601912,20960,512,-1724,nan,0.000000
2,5,0,15,712417,86173981,3529921530597065314,1361194009.601912,12476,-2112,908,nan,0.000000
2,5,0,15,712417,86173981,3529921530597067935,1361194009.601912,18376,-2720,2224,nan,0.000000
2,5,1,15,712417,86174013,3529921530597070556,1361194009.602748,14080,-3240,84,nan,0.000000
2,5,1,15,712417,86174013,3529921530597073177,1361194009.602748,14416,-5324,64,nan,0.000000
2,5,1,15,712417,86174013,3529921530597075798,1361194009.602748,14468,-4892,-2112,nan,0.000000
2,5,1,15,712417,86174013,3529921530597078419,1361194009.602748,14624,-5112,-2128,nan,0.000000
2,5,1,15,712417,86174013,3529921530597081040,1361194009.602748,14956,-4484,-2192,nan,0.000000
2,5,2,15,712417,86174045,3529921530597083661,1361194009.604303,15580,-6892,-2164,nan,0.000000
2,5,2,15,712417,86174045,3529921530597086282,1361194009.604303,19976,-5724,-1596,nan,0.000000
2,5,2,15,712417,86174045,3529921530597088903,1361194009.604303,15468,-64,552,nan,0.000000
2,5,2,15,712417,86174045,3529921530597091524,1361194009.604303,16276,-3492,-844,nan,0.000000
2,5,2,15,712417,86174045,3529921530597094145,1361194009.604303,14732,-4412,-796,nan,0.000000
2,5,3,15,712417,86174077,3529921530597096766,1361194009.604905,13208,-2760,-1524,nan,0.000000
2,5,3,15,712417,86174077,3529921530597099387,1361194009.604905,14384,-2900,-2304,nan,0.000000
2,5,3,15,712417,86174077,3529921530597102008,1361194009.604905,14472,-4872,-3480,nan,0.000000
2,5,3,15,712417,86174077,3529921530597104629,1361194009.604905,17060,-4364,-3368,nan,0.000000
2,5,3,15,712417,86174077,3529921530597107250,1361194009.604905,19356,-5608,-4784,nan,0.000000
2,5,4,15,712417,86174109,3529921530597109871,1361194009.605296,16112,-772,3732,nan,0.000000
2,5,4,15,712417,86174109,3529921530597112492,1361194009.605296,15084,-2792,780,nan,0.000000
2,5,4,15,712417,86174109,3529921530597115113,1361194009.605296,15836,-728,-1748,nan,0.000000
2,5,4,15,712417,86174109,3529921530597117734,1361194009.605296,13488,-5356,-636,nan,0.000000
2,5,4,15,712417,86174109,3529921530597120355,1361194009.605296,14044,-5052,-1608,nan,0.000000
1,5,5,0,793664,86174141,865562997894583310,1361194009.606093,15096,-4728,-2420,nan,0.000000
1,5,5,0,793664,86174141,865562997894585931,1361194009.606093,21056,-6728,-1888,nan,0.000000
2,5,6,0,793664,86174174,865562997894588552,1361194009.606374,14312,-1052,1188,nan,0.000000
2,5,6,0,793664,86174174,865562997894591173,1361194009.606374,14616,-3284,-1440,nan,0.000000
2,5,6,0,793664,86174174,865562997894593794,1361194009.606374,17308,-6708,728,nan,0.000000
2,5,6,0,793664,86174174,865562997894596415,1361194009.606374,14396,-1388,-1892,nan,0.000000
2,5,6,0,793664,86174174,865562997894599036,1361194009.606374,15064,-2996,-1328,nan,0.000000
2,5,7,0,793664,86174205,865562997894601657,1361194009.608083,14952,-3792,-1364,nan,0.000000
2,5,7,0,793664,86174205,865562997894604278,1361194009.608083,16052,-3236,-1112,nan,0.000000
2,5,7,0,793664,86174205,865562997894606899,1361194009.608083,16616,-3280,816,nan,0.000000
2,5,7,0,793664,86174205,865562997894609520,1361194009.608083,14652,-6504,4696,nan,0.000000
2,5,7,0,793664,86174205,865562997894612141,1361194009.608083,14756,-1936,1576,nan,0.000000
2,5,8,0,793664,86174238,865562997894614762,1361194009.608488,16996,-5924,1804,nan,0.000000
2,5,8,0,793664,86174238,865562997894617383,1361194009.608488,14200,-5532,1784,nan,0.000000
2,5,8,0,793664,86174238,865562997894620004,1361194009.608488,15532,-4956,1936,nan,0.000000
2,5,8,0,793664,86174238,865562997894622625,1361194009.608488,15168,-5316,1420,nan,0.000000
2,5,8,0,793664,86174238,865562997894625246,1361194009.608488,14708,-6116,2404,nan,0.000000
2,5,9,0,793664,86174269,865562997894627867,1361194009.610011,14668,-5564,2120,nan,0.000000
2,5,9,0,793664,86174269,865562997894630488,1361194009.610011,14752,-6372,1948,nan,0.000000
2,5,9,0,793664,86174269,865562997894633109,1361194009.610011,14348,-6564,2012,nan,0.000000
2,5,9,0,793664,86174269,865562997894635730,1361194009.610011,16712,-5492,2252,nan,0.000000
2,5,9,0,793664,86174269,865562997894638351,1361194009.610011,15844,-3524,-80,nan,0.000000
2,5,10,0,793664,86174301,865562997894640972,1361194009.610701,16516,-2592,-2436,nan,0.000000
2,5,10,0,793664,86174301,865562997894643593,1361194009.610701,15916,-2948,-92,nan,0.000000
2,5,10,0,793664,86174301,865562997894646214,1361194009.610701,15000,-1960,-2696,nan,0.000000
2,5,10,0,793664,86174301,865562997894648835,1361194009.610701,14652,-2616,-1732,nan,0.000000
2,5,10,0,793664,86174301,865562997894651456,1361194009.610701,15112,-4296,-1984,nan,0.000000
2,5,11,0,793664,86174333,865562997894654077,1361194009.612178,15564,-3952,-2944,nan,0.000000
2,5,11,0,793664,86174333,865562997894656698,1361194009.612178,15428,-4752,-4260,nan,0.000000
2,5,11,0,793664,86174333,865562997894659319,1361194009.612178,16352,-3632,-4672,nan,0.000000
2,5,11,0,793664,86174333,865562997894661940,1361194009.612178,20088,-4364,-1428,nan,0.000000
2,5,11,0,793664,86174333,865562997894664561,1361194009.612178,12588,-1452,3316,nan,0.000000
1,5,12,0,874912,86174365,6696695335277592820,1361194009.612674,14152,-2152,-1472,nan,0.000000
1,5,12,0,874912,86174365,6696695335277595441,1361194009.612674,13508,-5828,-804,nan,0.000000
2,5,13,0,874912,86174397,6696695335277598062,1361194009.614096,14636,-5060,-1988,nan,0.000000
2,5,13,0,874912,86174397,6696695335277600683,1361194009.614096,14940,-4328,-1464,nan,0.000000
2,5,13,0,874912,86174397,6696695335277603304,1361194009.614096,15560,-5580,-2360,nan,0.000000
2,5,13,0,874912,86174397,6696695335277605925,1361194009.614096,22100,-6920,-812,nan,0.000000
2,5,13,0,874912,86174397,6696695335277608546,1361194009.614096,13916,1828,960,nan,0.000000
2,5,14,0,874912,86174429,6696695335277611167,1361194009.614629,14868,-5580,-1040,nan,0.000000
2,5,14,0,874912,86174429,6696695335277613788,1361194009.614629,16044,-4720,-620,nan,0.000000
2,5,14,0,874912,86174429,6696695335277616409,1361194009.614629,13760,-1528,-2220,nan,0.000000
2,5,14,0,874912,86174429,6696695335277619030,1361194009.614629,14716,-3576,-1872,nan,0.000000
2,5,14,0,874912,86174429,6696695335277621651,1361194009.614629,15140,-4356,-3308,nan,0.000000
2,5,15,0,874912,86174461,6696695335277624272,1361194009.615925,15252,-3832,-3168,nan,0.000000
2,5,15,0,874912,86174461,6696695335277626893,1361194009.615925,16332,-3360,-5024,nan,0.000000
2,5,15,0,874912,86174461,6696695335277629514,1361194009.615925,20120,-4992,-1100,nan,0.000000
2,5,15,0,874912,86174461,6696695335277632135,1361194009.615925,11528,-3108,1732,nan,0.000000
2,5,15,0,874912,86174461,6696695335277634756,1361194009.615925,18640,-3200,-1828,nan,0.000000
2,5,0,0,874912,86174493,6696695335277637377,1361194009.616612,13040,-3612,-1356,nan,0.000000
2,5,0,0,874912,86174493,6696695335277639998,1361194009.616612,14040,-5180,-1280,nan,0.000000
2,5,0,0,874912,86174493,6696695335277642619,1361194009.616612,15728,-4836,-1652,nan,0.000000
2,5,0,0,874912,86174493,6696695335277645240,1361194009.616612,14272,-5832,-1628,nan,0.000000
2,5,0,0,874912,86174493,6696695335277647861,1361194009.616612,15164,-4712,-1752,nan,0.000000
2,5,1,0,874912,86174525,6696695335277650482,1361194009.617880,20444,-5348,-112,nan,0.000000
2,5,1,0,874912,86174525,6696695335277653103,1361194009.617880,12132,-1140,1188,nan,0.000000
2,5,1,0,874912,86174525,6696695335277655724,1361194009.617880,17612,-5392,-1412,nan,0.000000
2,5,1,0,874912,86174525,6696695335277658345,1361194009.617880,16348,-4344,464,nan,0.000000
2,5,1,0,874912,86174525,6696695335277660966,1361194009.617880,14512,-1536,-776,nan,0.000000
2,5,2,0,874912,86174557,6696695335277663587,1361194009.618294,15784,-3672,-304,nan,0.000000
2,5,2,0,874912,86174557,6696695335277666208,1361194009.618294,14608,-4172,-104,nan,0.000000
2,5,2,0,874912,86174557,6696695335277668829,1361194009.618294,17040,-3560,2448,nan,0.000000
2,5,2,0,874912,86174557,6696695335277671450,1361194009.618294,14404,-3424,2304,nan,0.000000
2,5,2,0,874912,86174557,6696695335277674071,1361194009.618294,14480,-5360,2572,nan,0.000000
1,5,3,0,956160,86174589,-7422014722020880130,1361194009.619934,14504,-5120,1124,nan,0.000000
1,5,3,0,956160,86174589,-7422014722020877509,1361194009.619934,15312,-4780,1472,nan,0.000000
2,5,4,0,956160,86174621,-7422014722020874888,1361194009.620267,15648,-4844,944,nan,0.000000
2,5,4,0,956160,86174621,-7422014722020872267,1361194009.620267,14364,-6792,1452,nan,0.000000
2,5,4,0,956160,86174621,-7422014722020869646,1361194009.620267,14812,-6992,964,nan,0.000000
2,5,4,0,956160,86174621,-7422014722020867025,1361194009.620267,14952,-6332,540,nan,0.000000
2,5,4,0,956160,86174621,-7422014722020864404,1361194009.620267,19500,-5488,2056,nan,0.000000
2,5,5,0,956160,86174653,-7422014722020861783,1361194009.621913,14372,1936,968,nan,0.000000
2,5,5,0,956160,86174653,-7422014722020859162,1361194009.621913,15804,-5240,-1024,nan,0.000000
2,5,5,0,956160,86174653,-7422014722020856541,1361194009.621913,15896,-3096,-328,nan,0.000000
2,5,5,0,956160,86174653,-7422014722020853920,1361194009.621913,14472,-1956,-1320,nan,0.000000
2,5,5,0,956160,86174653,-7422014722020851299,1361194009.621913,14812,-3300,-2012,nan,0.000000
2,5,6,0,956160,86174685,-7422014722020848678,1361194009.622437,14952,-4312,-2136,nan,0.000000
2,5,6,0,956160,86174685,-7422014722020846057,1361194009.622437,15608,-3744,-2964,nan,0.000000
2,5,6,0,956160,86174685,-7422014722020843436,1361194009.622437,16896,-4204,-4616,nan,0.000000
2,5,6,0,956160,86174685,-7422014722020840815,1361194009.622437,20524,-3592,-180,nan,0.000000
2,5,6,0,956160,86174685,-7422014722020838194,1361194009.622437,11088,-1620,1944,nan,0.000000
2,5,7,0,956160,86174717,-7422014722020835573,1361194009.623918,18548,-2132,-148,nan,0.000000
2,5,7,0,956160,86174717,-7422014722020832952,1361194009.623918,14236,-2232,-972,nan,0.000000
2,5,7,0,956160,86174717,-7422014722020830331,1361194009.623918,13704,-4820,-672,nan,0.000000
2,5,7,0,956160,86174717,-7422014722020827710,1361194009.623918,14856,-4984,-1668,nan,0.000000
2,5,7,0,956160,86174717,-7422014722020825089,1361194009.623918,14740,-4780,-2484,nan,0.000000
2,5,8,0,956160,86174749,-7422014722020822468,1361194009.624518,14948,-5448,-2744,nan,0.000000
2,5,8,0,956160,86174749,-7422014722020819847,1361194009.624518,15856,-6236,-2896,nan,0.000000
2,5,8,0,956160,86174749,-7422014722020817226,1361194009.624518,21404,-4904,-708,nan,0.000000
2,5,8,0,956160,86174749,-7422014722020814605,1361194009.624518,11500,456,1156,nan,0.000000
2,5,8,0,956160,86174749,-7422014722020811984,1361194009.624518,17452,-7852,-1336,nan,0.000000
2,5,9,0,956160,86174781,-7422014722020809363,1361194009.625927,14564,-4028,-1296,nan,0.000000
2,5,9,0,956160,86174781,-7422014722020806742,1361194009.625927,13976,-1676,-2396,nan,0.000000
2,5,9,0,956160,86174781,-7422014722020804121,1361194009.625927,15180,-4468,-2104,nan,0.000000
2,5,9,0,956160,86174781,-7422014722020801500,1361194009.625927,14728,-4632,-2772,nan,0.000000
2,5,9,0,956160,86174781,-7422014722020798879,1361194009.625927,15540,-3552,-2996,nan,0.000000
1,5,10,0,1037408,86174813,-6559927191869132550,1361194009.626662,19332,-3996,1040,nan,0.000000
1,5,10,0,1037408,86174813,-6559927191869129929,1361194009.626662,11200,-3980,1184,nan,0.000000
2,5,11,0,1037408,86174845,-6559927191869127308,1361194009.627926,18032,-3424,1432,nan,0.000000
2,5,11,0,1037408,86174845,-6559927191869124687,1361194009.627926,14820,-3528,-824,nan,0.000000
2,5,11,0,1037408,86174845,-6559927191869122066,1361194009.627926,13732,-5068,120,nan,0.000000
2,5,11,0,1037408,86174845,-6559927191869119445,1361194009.627926,15704,-4976,-180,nan,0.000000
2,5,11,0,1037408,86174845,-6559927191869116824,1361194009.627926,15252,-4856,-652,nan,0.000000
2,5,12,0,1037408,86174877,-6559927191869114203,1361194009.628511,15704,-4604,-100,nan,0.000000
2,5,12,0,1037408,86174877,-6559927191869111582,1361194009.628511,17940,-3904,740,nan,0.000000
2,5,12,0,1037408,86174877,-6559927191869108961,1361194009.628511,13724,-2004,1160,nan,0.000000
2,5,12,0,1037408,86174877,-6559927191869106340,1361194009.628511,17400,-5328,-1720,nan,0.000000
2,5,12,0,1037408,86174877,-6559927191869103719,1361194009.628511,15900,-3916,116,nan,0.000000
2,5,13,0,1037408,86174909,-6559927191869101098,1361194009.630193,14772,-2088,-1000,nan,0.000000
2,5,13,0,1037408,86174909,-6559927191869098477,1361194009.630193,14908,-3484,-1756,nan,0.000000
2,5,13,0,1037408,86174909,-6559927191869095856,1361194009.630193,16776,-5308,-416,nan,0.000000
2,5,13,0,1037408,86174909,-6559927191869093235,1361194009.630193,15420,-1028,-148,nan,0.000000
2,5,13,0,1037408,86174909,-6559927191869090614,1361194009.630193,14348,-5084,1704,nan,0.000000
2,5,14,0,1037408,86174941,-6559927191869087993,1361194009.630639,15508,-4196,-312,nan,0.000000
2,5,14,0,1037408,86174941,-6559927191869085372,1361194009.630639,16560,-3156,-1160,nan,0.000000
2,5,14,0,1037408,86174941,-6559927191869082751,1361194009.630639,15348,-4788,-864,nan,0.000000
2,5,14,0,1037408,86174941,-6559927191869080130,1361194009.630639,15564,-4156,-756,nan,0.000000
2,5,14,0,1037408,86174941,-6559927191869077509,1361194009.630639,15384,-4356,-836,nan,0.000000
2,5,15,0,1037408,86174973,-6559927191869074888,1361194009.632091,14980,-5608,-696,nan,0.000000
2,5,15,0,1037408,86174973,-6559927191869072267,1361194009.632091,14860,-6216,60,nan,0.000000
2,5,15,0,1037408,86174973,-6559927191869069646,1361194009.632091,14828,-6524,384,nan,0.000000
2,5,15,0,1037408,86174973,-6559927191869067025,1361194009.632091,18972,-6416,684,nan,0.000000
2,5,15,0,1037408,86174973,-6559927191869064404,1361194009.632091,15260,-1004,192,nan,0.000000
1,5,1,0,1118662,86661250,-1081298301744875273,1361194024.472333,15224,-3484,-2976,nan,0.000000
1,5,1,1,1118662,86661250,-1081298301744872652,1361194024.472333,15772,-3652,-3536,nan,0.000000
2,5,2,1,1118662,86661282,-1081298301744870031,1361194024.473195,19092,-4596,-2572,nan,0.000000
2,5,2,1,1118662,86661282,-1081298301744867410,1361194024.473195,15312,-2668,1536,nan,0.000000
2,5,2,1,1118662,86661282,-1081298301744864789,1361194024.473195,16016,-3352,2368,nan,0.000000
2,5,2,1,1118662,86661282,-1081298301744862168,1361194024.473195,14860,-2680,1396,nan,0.000000
2,5,2,1,1118662,86661282,-1081298301744859547,1361194024.473195,15320,-2912,2188,nan,0.000000
2,5,3,1,1118662,86661313,-1081298301744856926,1361194024.474220,15312,-4508,2120,nan,0.000000
2,5,3,1,1118662,86661313,-1081298301744854305,1361194024.474220,15788,-4056,2244,nan,0.000000
2,5,3,1,1118662,86661313,-1081298301744851684,1361194024.474220,15704,-4608,2144,nan,0.000000
2,5,3,1,1118662,86661313,-1081298301744849063,1361194024.474220,14760,-4736,892,nan,0.000000
2,5,3,1,1118662,86661313,-1081298301744846442,1361194024.474220,15272,-4680,848,nan,0.000000
2,5,4,1,1118662,86661346,-1081298301744843821,1361194024.475069,15216,-5700,1036,nan,0.000000
2,5,4,1,1118662,86661346,-1081298301744841200,1361194024.475069,14844,-5556,396,nan,0.000000
2,5,4,1,1118662,86661346,-1081298301744838579,1361194024.475069,14828,-5720,48,nan,0.000000
2,5,4,1,1118662,86661346,-1081298301744835958,1361194024.475069,14784,-6252,-384,nan,0.000000
2,5,4,1,1118662,86661346,-1081298301744833337,1361194024.475069,14484,-6520,-440,nan,0.000000
2,5,5,1,1118662,86661378,-1081298301744830716,1361194024.475830,14308,-6696,-396,nan,0.000000
2,5,5,1,1118662,86661378,-1081298301744828095,1361194024.475830,14576,-7072,-28,nan,0.000000
2,5,5,1,1118662,86661378,-1081298301744825474,1361194024.475830,14512,-8236,232,nan,0.000000
2,5,5,1,1118662,86661378,-1081298301744822853,1361194024.475830,18808,-6888,-840,nan,0.000000
2,5,5,1,1118662,86661378,-1081298301744820232,1361194024.475830,13924,-1400,-792,nan,0.000000
2,5,6,1,1118662,86661410,-1081298301744817611,1361194024.476574,16184,-700,-4076,nan,0.000000
2,5,6,1,1118662,86661410,-1081298301744814990,1361194024.476574,16220,-5852,-1656,nan,0.000000
2,5,6,1,1118662,86661410,-1081298301744812369,1361194024.476574,14012,-2284,-3500,nan,0.000000
2,5,6,1,1118662,86661410,-1081298301744809748,1361194024.476574,14584,-2976,-3216,nan,0.000000
2,5,6,1,1118662,86661410,-1081298301744807127,1361194024.476574,14824,-4532,-3444,nan,0.000000
2,5,7,1,1118662,86661442,-1081298301744804506,1361194024.477755,15008,-3608,-4072,nan,0.000000
2,5,7,1,1118662,86661442,-1081298301744801885,1361194024.477755,14896,-2988,-4944,nan,0.000000
2,5,7,1,1118662,86661442,-1081298301744799264,1361194024.477755,21468,-4100,-3192,nan,0.000000
2,5,7,1,1118662,86661442,-1081298301744796643,1361194024.477755,13468,-652,-468,nan,0.000000
2,5,7,1,1118662,86661442,-1081298301744794022,1361194024.477755,15884,-2272,-132,nan,0.000000
1,5,8,0,1199917,86661474,-5698086020772652816,1361194024.478313,14624,-4148,-1152,nan,0.000000
1,5,8,15,1199917,86661474,-5698086020772650195,1361194024.478313,15612,-3768,-1296,nan,0.000000
2,5,9,15,1199917,86661506,-5698086020772647574,1361194024.479791,14340,-5284,-1512,nan,0.000000
2,5,9,15,1199917,86661506,-5698086020772644953,1361194024.479791,16128,-2832,-568,nan,0.000000
2,5,9,15,1199917,86661506,-5698086020772642332,1361194024.479791,15064,-2760,-248,nan,0.000000
2,5,9,15,1199917,86661506,-5698086020772639711,1361194024.479791,16804,-908,-5176,nan,0.000000
2,5,9,15,1199917,86661506,-5698086020772637090,1361194024.479791,16064,-4852,-960,nan,0.000000
2,5,10,15,1199917,86661538,-5698086020772634469,1361194024.480767,15968,-2660,-3092,nan,0.000000
2,5,10,15,1199917,86661538,-5698086020772631848,1361194024.480767,15208,-2560,-3092,nan,0.000000
2,5,10,15,1199917,86661538,-5698086020772629227,1361194024.480767,15536,-4180,-2240,nan,0.000000
2,5,10,15,1199917,86661538,-5698086020772626606,1361194024.480767,15448,-1704,-2736,nan,0.000000
2,5,10,15,1199917,86661538,-5698086020772623985,1361194024.480767,15640,-1912,-3272,nan,0.000000
2,5,11,15,1199917,86661570,-5698086020772621364,1361194024.481865,14868,-2808,-3352,nan,0.000000
2,5,11,15,1199917,86661570,-5698086020772618743,1361194024.481865,15404,-1232,-4528,nan,0.000000
2,5,11,15,1199917,86661570,-5698086020772616122,1361194024.481865,17840,-1648,-1016,nan,0.000000
2,5,11,15,1199917,86661570,-5698086020772613501,1361194024.481865,17152,-4188,-2056,nan,0.000000
2,5,11,15,1199917,86661570,-5698086020772610880,1361194024.481865,14524,-2748,604,nan,0.000000
2,5,12,15,1199917,86661602,-5698086020772608259,1361194024.482377,16324,-4048,136,nan,0.000000
2,5,12,15,1199917,86661602,-5698086020772605638,1361194024.482377,13884,-5588,200,nan,0.000000
2,5,12,15,1199917,86661602,-5698086020772603017,1361194024.482377,14464,-4592,-612,nan,0.000000
2,5,12,15,1199917,86661602,-5698086020772600396,1361194024.482377,15076,-4912,-1664,nan,0.000000
2,5,12,15,1199917,86661602,-5698086020772597775,1361194024.482377,14736,-5404,-2212,nan,0.000000
2,5,13,15,1199917,86661633,-5698086020772595154,1361194024.483956,15216,-5244,-2432,nan,0.000000
2,5,13,15,1199917,86661633,-5698086020772592533,1361194024.483956,15648,-6076,-2676,nan,0.000000
2,5,13,15,1199917,86661633,-5698086020772589912,1361194024.483956,20260,-3472,-228,nan,0.000000
2,5,13,15,1199917,86661633,-5698086020772587291,1361194024.483956,13564,-36,-380,nan,0.000000
2,5,13,15,1199917,86661633,-5698086020772584670,1361194024.483956,16716,-6500,-640,nan,0.000000
2,5,14,15,1199917,86661666,-5698086020772582049,1361194024.484463,13796,-2696,-2232,nan,0.000000
2,5,14,15,1199917,86661666,-5698086020772579428,1361194024.484463,14708,-2144,-2196,nan,0.000000
2,5,14,15,1199917,86661666,-5698086020772576807,1361194024.484463,15088,-4512,-3244,nan,0.000000
2,5,14,15,1199917,86661666,-5698086020772574186,1361194024.484463,14832,-3776,-3684,nan,0.000000
2,5,14,15,1199917,86661666,-5698086020772571565,1361194024.484463,16548,-2604,-4776,nan,0.000000
1,5,15,0,1281172,86661697,7851921460011026679,1361194024.485890,9648,-2116,400,nan,0.000000
1,5,15,0,1281172,86661697,7851921460011029300,1361194024.485890,18992,-1732,-1424,nan,0.000000
2,5,0,0,1281172,86661730,7851921460011031921,1361194024.486166,14228,-3824,-1260,nan,0.000000
2,5,0,0,1281172,86661730,7851921460011034542,1361194024.486166,13508,-5128,-1748,nan,0.000000
2,5,0,0,1281172,86661730,7851921460011037163,1361194024.486166,15424,-5328,-2548,nan,0.000000
2,5,0,0,1281172,86661730,7851921460011039784,1361194024.486166,14888,-4060,-2248,nan,0.000000
2,5,0,0,1281172,86661730,7851921460011042405,1361194024.486166,14256,-5144,-2608,nan,0.000000
2,5,1,0,1281172,86661761,7851921460011045026,1361194024.488065,20584,-4800,-220,nan,0.000000
2,5,1,0,1281172,86661761,7851921460011047647,1361194024.488065,12508,-1968,684,nan,0.000000
2,5,1,0,1281172,86661761,7851921460011050268,1361194024.488065,16988,-6412,-2240,nan,0.000000
2,5,1,0,1281172,86661761,7851921460011052889,1361194024.488065,16040,-3716,-1164,nan,0.000000
2,5,1,0,1281172,86661761,7851921460011055510,1361194024.488065,14232,-2468,-1920,nan,0.000000
2,5,2,0,1281172,86661794,7851921460011058131,1361194024.488578,15320,-3732,-2528,nan,0.000000
2,5,2,0,1281172,86661794,7851921460011060752,1361194024.488578,14856,-4512,-1912,nan,0.000000
2,5,2,0,1281172,86661794,7851921460011063373,1361194024.488578,17212,-3540,-136,nan,0.000000
2,5,2,0,1281172,86661794,7851921460011065994,1361194024.488578,14524,-3836,1048,nan,0.000000
2,5,2,0,1281172,86661794,7851921460011068615,1361194024.488578,14100,-4748,2388,nan,0.000000
2,5,3,0,1281172,86661825,7851921460011071236,1361194024.489879,17040,-3872,1004,nan,0.000000
2,5,3,0,1281172,86661825,7851921460011073857,1361194024.489879,16196,-4444,-32,nan,0.000000
2,5,3,0,1281172,86661825,7851921460011076478,1361194024.489879,14504,-5552,536,nan,0.000000
2,5,3,0,1281172,86661825,7851921460011079099,1361194024.489879,16068,-4344,252,nan,0.000000
2,5,3,0,1281172,86661825,7851921460011081720,1361194024.489879,15152,-5096,540,nan,0.000000
2,5,4,0,1281172,86661858,7851921460011084341,1361194024.490398,14800,-5860,732,nan,0.000000
2,5,4,0,1281172,86661858,7851921460011086962,1361194024.490398,14768,-6688,1264,nan,0.000000
2,5,4,0,1281172,86661858,7851921460011089583,1361194024.490398,14748,-5800,1564,nan,0.000000
2,5,4,0,1281172,86661858,7851921460011092204,1361194024.490398,17156,-1572,-896,nan,0.000000
2,5,4,0,1281172,86661858,7851921460011094825,1361194024.490398,16452,-3668,-2508,nan,0.000000
2,5,5,0,1281172,86661889,7851921460011097446,1361194024.491938,16492,-4476,-1948,nan,0.000000
2,5,5,0,1281172,86661889,7851921460011100067,1361194024.491938,14868,-1208,-1944,nan,0.000000
2,5,5,0,1281172,86661889,7851921460011102688,1361194024.491938,14516,-1708,-3400,nan,0.000000
2,5,5,0,1281172,86661889,7851921460011105309,1361194024.491938,14948,-3868,-3188,nan,0.000000
2,5,5,0,1281172,86661889,7851921460011107930,1361194024.491938,14800,-3628,-2884,nan,0.000000
1,5,6,0,1362428,86661922,7563875817382110456,1361194024.492415,15680,-4260,-3584,nan,0.000000
1,5,6,0,1362428,86661922,7563875817382113077,1361194024.492415,16904,-5236,-4552,nan,0.000000
2,5,7,0,1362428,86661953,7563875817382115698,1361194024.494010,20640,-1188,-28,nan,0.000000
2,5,7,0,1362428,86661953,7563875817382118319,1361194024.494010,11520,-1768,788,nan,0.000000
2,5,7,0,1362428,86661953,7563875817382120940,1361194024.494010,18240,32,-2752,nan,0.000000
2,5,7,0,1362428,86661953,7563875817382123561,1361194024.494010,13912,-4248,-1392,nan,0.000000
2,5,7,0,1362428,86661953,7563875817382126182,1361194024.494010,13916,-4788,-1464,nan,0.000000
2,5,8,0,1362428,86661986,7563875817382128803,1361194024.494522,14804,-4720,-2532,nan,0.000000
2,5,8,0,1362428,86661986,7563875817382131424,1361194024.494522,14776,-5100,-2528,nan,0.000000
2,5,8,0,1362428,86661986,7563875817382134045,1361194024.494522,14796,-6252,-2936,nan,0.000000
2,5,8,0,1362428,86661986,7563875817382136666,1361194024.494522,17596,-7228,-2952,nan,0.000000
2,5,8,0,1362428,86661986,7563875817382139287,1361194024.494522,16912,-1572,-672,nan,0.000000
2,5,9,0,1362428,86662017,7563875817382141908,1361194024.496061,14284,156,-3056,nan,0.000000
2,5,9,0,1362428,86662017,7563875817382144529,1361194024.496061,16932,-7476,-1160,nan,0.000000
2,5,9,0,1362428,86662017,7563875817382147150,1361194024.496061,13680,-1820,-3568,nan,0.000000
2,5,9,0,1362428,86662017,7563875817382149771,1361194024.496061,14276,-1996,-3352,nan,0.000000
2,5,9,0,1362428,86662017,7563875817382152392,1361194024.496061,14764,-4752,-3456,nan,0.000000
2,5,10,0,1362428,86662050,7563875817382155013,1361194024.496556,15008,-2964,-3764,nan,0.000000
2,5,10,0,1362428,86662050,7563875817382157634,1361194024.496556,18952,-5484,-3100,nan,0.000000
2,5,10,0,1362428,86662050,7563875817382160255,1361194024.496556,17224,160,-260,nan,0.000000
2,5,10,0,1362428,86662050,7563875817382162876,1361194024.496556,12052,-2244,-888,nan,0.000000
2,5,10,0,1362428,86662050,7563875817382165497,1361194024.496556,19604,-824,-1120,nan,0.000000
2,5,11,0,1362428,86662081,7563875817382168118,1361194024.497883,14728,-4416,-1220,nan,0.000000
2,5,11,0,1362428,86662081,7563875817382170739,1361194024.497883,14672,-3484,-1660,nan,0.000000
2,5,11,0,1362428,86662081,7563875817382173360,1361194024.497883,15776,-4700,-1708,nan,0.000000
2,5,11,0,1362428,86662081,7563875817382175981,1361194024.497883,15016,-3748,-2048,nan,0.000000
2,5,11,0,1362428,86662081,7563875817382178602,1361194024.497883,16284,-3188,-948,nan,0.000000
2,5,12,0,1362428,86662114,7563875817382181223,1361194024.498303,13788,4,-688,nan,0.000000
2,5,12,0,1362428,86662114,7563875817382183844,1361194024.498303,17068,-2060,-2416,nan,0.000000
2,5,12,0,1362428,86662114,7563875817382186465,1361194024.498303,18196,-2996,-2400,nan,0.000000
2,5,12,0,1362428,86662114,7563875817382189086,1361194024.498303,14120,-1188,-3116,nan,0.000000
2,5,12,0,1362428,86662114,7563875817382191707,1361194024.498303,16220,-2276,-2688,nan,0.000000
1,5,13,0,1443684,86662145,-8000938343392980739,1361194024.499812,15180,-528,-4272,nan,0.000000
1,5,13,0,1443684,86662145,-8000938343392978118,1361194024.499812,15392,-592,-4368,nan,0.000000
2,5,14,0,1443684,86662178,-8000938343392975497,1361194024.500153,16460,-328,-5112,nan,0.000000
2,5,14,0,1443684,86662178,-8000938343392972876,1361194024.500153,17756,-140,-5372,nan,0.000000
2,5,14,0,1443684,86662178,-8000938343392970255,1361194024.500153,16880,-60,1552,nan,0.000000
2,5,14,0,1443684,86662178,-8000938343392967634,1361194024.500153,15404,-3408,1812,nan,0.000000
2,5,14,0,1443684,86662178,-8000938343392965013,1361194024.500153,15812,-2420,-560,nan,0.000000
2,5,15,0,1443684,86662209,-8000938343392962392,1361194024.501762,14008,-5740,-292,nan,0.000000
2,5,15,0,1443684,86662209,-8000938343392959771,1361194024.501762,14520,-5300,-1872,nan,0.000000
2,5,15,0,1443684,86662209,-8000938343392957150,1361194024.501762,14468,-4272,-2572,nan,0.000000
2,5,15,0,1443684,86662209,-8000938343392954529,1361194024.501762,14468,-4756,-3052,nan,0.000000
2,5,15,0,1443684,86662209,-8000938343392951908,1361194024.501762,15124,-5480,-2688,nan,0.000000
2,5,0,0,1443684,86662242,-8000938343392949287,1361194024.502365,17024,-6168,-4288,nan,0.000000
2,5,0,0,1443684,86662242,-8000938343392946666,1361194024.502365,18036,-3880,664,nan,0.000000
2,5,0,0,1443684,86662242,-8000938343392944045,1361194024.502365,14948,-96,-616,nan,0.000000
2,5,0,0,1443684,86662242,-8000938343392941424,1361194024.502365,15784,-7500,-660,nan,0.000000
2,5,0,0,1443684,86662242,-8000938343392938803,1361194024.502365,14012,-3408,-1404,nan,0.000000
2,5,1,0,1443684,86662273,-8000938343392936182,1361194024.503767,14152,-1836,-2300,nan,0.000000
2,5,1,0,1443684,86662273,-8000938343392933561,1361194024.503767,14584,-4624,-3124,nan,0.000000
2,5,1,0,1443684,86662273,-8000938343392930940,1361194024.503767,15716,-4444,-3472,nan,0.000000
2,5,1,0,1443684,86662273,-8000938343392928319,1361194024.503767,16372,-2864,-5208,nan,0.000000
2,5,1,0,1443684,86662273,-8000938343392925698,1361194024.503767,20216,-4928,-1960,nan,0.000000
2,5,2,0,1443684,86662306,-8000938343392923077,1361194024.504356,12556,-1880,1492,nan,0.000000
2,5,2,0,1443684,86662306,-8000938343392920456,1361194024.504356,16896,-3512,-108,nan,0.000000
2,5,2,0,1443684,86662306,-8000938343392917835,1361194024.504356,14956,-2640,-1392,nan,0.000000
2,5,2,0,1443684,86662306,-8000938343392915214,1361194024.504356,13492,-4768,-848,nan,0.000000
2,5,2,0,1443684,86662306,-8000938343392912593,1361194024.504356,15468,-4652,-1468,nan,0.000000
2,5,3,0,1443684,86662337,-8000938343392909972,1361194024.505766,14936,-4724,-1352,nan,0.000000
2,5,3,0,1443684,86662337,-8000938343392907351,1361194024.505766,14980,-4484,-2188,nan,0.000000
2,5,3,0,1443684,86662337,-8000938343392904730,1361194024.505766,18744,-5400,-1920,nan,0.000000
2,5,3,0,1443684,86662337,-8000938343392902109,1361194024.505766,15672,-3012,796,nan,0.000000
2,5,3,0,1443684,86662337,-8000938343392899488,1361194024.505766,14540,-2644,-1680,nan,0.000000
1,5,4,0,1524939,86662369,8428342591509674234,1361194024.506546,14092,-1832,-2104,nan,0.000000
1,5,4,0,1524939,86662369,8428342591509676855,1361194024.506546,15396,-3176,-1708,nan,0.000000
2,5,5,0,1524939,86662401,8428342591509679476,1361194024.507765,15340,-2688,-1800,nan,0.000000
2,5,5,0,1524939,86662401,8428342591509682097,1361194024.507765,16452,-4464,-1356,nan,0.000000
2,5,5,0,1524939,86662401,8428342591509684718,1361194024.507765,15196,-3544,1440,nan,0.000000
2,5,5,0,1524939,86662401,8428342591509687339,1361194024.507765,14812,-4464,1940,nan,0.000000
2,5,5,0,1524939,86662401,8428342591509689960,1361194024.507765,16156,-3708,212,nan,0.000000
2,5,6,0,1524939,86662433,8428342591509692581,1361194024.508513,15492,-5244,60,nan,0.000000
2,5,6,0,1524939,86662433,8428342591509695202,1361194024.508513,15280,-5184,824,nan,0.000000
2,5,6,0,1524939,86662433,8428342591509697823,1361194024.508513,15636,-4232,460,nan,0.000000
2,5,6,0,1524939,86662433,8428342591509700444,1361194024.508513,14920,-5528,856,nan,0.000000
2,5,6,0,1524939,86662433,8428342591509703065,1361194024.508513,14728,-5748,620,nan,0.000000
2,5,7,0,1524939,86662465,8428342591509705686,1361194024.509765,15076,-6368,596,nan,0.000000
2,5,7,0,1524939,86662465,8428342591509708307,1361194024.509765,14400,-6872,688,nan,0.000000
2,5,7,0,1524939,86662465,8428342591509710928,1361194024.509765,14248,-7404,1276,nan,0.000000
2,5,7,0,1524939,86662465,8428342591509713549,1361194024.509765,18704,-5756,1044,nan,0.000000
2,5,7,0,1524939,86662465,8428342591509716170,1361194024.509765,14832,-432,-168,nan,0.000000
2,5,8,0,1524939,86662497,8428342591509718791,1361194024.510491,16960,-2936,-1508,nan,0.000000
2,5,8,0,1524939,86662497,8428342591509721412,1361194024.510491,15012,-3360,-1328,nan,0.000000
2,5,8,0,1524939,86662497,8428342591509724033,1361194024.510491,14740,-2564,-1928,nan,0.000000
2,5,8,0,1524939,86662497,8428342591509726654,1361194024.510491,14888,-3564,-1840,nan,0.000000
2,5,8,0,1524939,86662497,8428342591509729275,1361194024.510491,15104,-3492,-2640,nan,0.000000
2,5,9,0,1524939,86662529,8428342591509731896,1361194024.511749,14728,-4216,-2608,nan,0.000000
2,5,9,0,1524939,86662529,8428342591509734517,1361194024.511749,16212,-4288,-2708,nan,0.000000
2,5,9,0,1524939,86662529,8428342591509737138,1361194024.511749,17560,-4240,-4504,nan,0.000000
2,5,9,0,1524939,86662529,8428342591509739759,1361194024.511749,18788,-2384,-312,nan,0.000000
2,5,9,0,1524939,86662529,8428342591509742380,1361194024.511749,12712,-2208,1720,nan,0.000000
1,5,11,0,1606195,86905028,-2234773917934351111,1361194031.912042,22120,-4660,-1168,nan,0.000000
1,5,11,1,1606195,86905028,-2234773917934348490,1361194031.912042,12044,1720,-236,nan,0.000000
2,5,12,1,1606195,86905060,-2234773917934345869,1361194031.912945,17836,-7812,-1808,nan,0.000000
2,5,12,1,1606195,86905060,-2234773917934343248,1361194031.912945,14556,-3160,-2020,nan,0.000000
2,5,12,1,1606195,86905060,-2234773917934340627,1361194031.912945,13564,-1540,-2828,nan,0.000000
2,5,12,1,1606195,86905060,-2234773917934338006,1361194031.912945,14904,-4760,-3164,nan,0.000000
2,5,12,1,1606195,86905060,-2234773917934335385,1361194031.912945,14972,-4696,-3172,nan,0.000000
2,5,13,1,1606195,86905092,-2234773917934332764,1361194031.914062,15816,-2856,-3484,nan,0.000000
2,5,13,1,1606195,86905092,-2234773917934330143,1361194031.914062,18128,-5196,-2636,nan,0.000000
2,5,13,1,1606195,86905092,-2234773917934327522,1361194031.914062,16364,-1936,144,nan,0.000000
2,5,13,1,1606195,86905092,-2234773917934324901,1361194031.914062,12368,-3988,788,nan,0.000000
2,5,13,1,1606195,86905092,-2234773917934322280,1361194031.914062,18456,-3252,-1652,nan,0.000000
2,5,14,1,1606195,86905124,-2234773917934319659,1361194031.914908,13360,-4728,-832,nan,0.000000
2,5,14,1,1606195,86905124,-2234773917934317038,1361194031.914908,14624,-5176,-752,nan,0.000000
2,5,14,1,1606195,86905124,-2234773917934314417,1361194031.914908,15464,-4436,-1460,nan,0.000000
2,5,14,1,1606195,86905124,-2234773917934311796,1361194031.914908,14596,-5160,-1160,nan,0.000000
2,5,14,1,1606195,86905124,-2234773917934309175,1361194031.914908,17956,-5320,-1576,nan,0.000000
2,5,15,1,1606195,86905156,-2234773917934306554,1361194031.916677,17416,-3272,468,nan,0.000000
2,5,15,1,1606195,86905156,-2234773917934303933,1361194031.916677,13236,-1772,-1376,nan,0.000000
2,5,15,1,1606195,86905156,-2234773917934301312,1361194031.916677,17700,-6468,-2256,nan,0.000000
2,5,15,1,1606195,86905156,-2234773917934298691,1361194031.916677,14160,-3020,-1636,nan,0.000000
2,5,15,1,1606195,86905156,-2234773917934296070,1361194031.916677,15236,-3132,-1856,nan,0.000000
2,5,0,1,1606195,86905188,-2234773917934293449,1361194031.917528,15284,-4284,-3044,nan,0.000000
2,5,0,1,1606195,86905188,-2234773917934290828,1361194031.917528,14868,-4576,-1940,nan,0.000000
2,5,0,1,1606195,86905188,-2234773917934288207,1361194031.917528,16996,-4080,-1084,nan,0.000000
2,5,0,1,1606195,86905188,-2234773917934285586,1361194031.917528,14540,-3748,588,nan,0.000000
2,5,0,1,1606195,86905188,-2234773917934282965,1361194031.917528,13640,-4644,1140,nan,0.000000
2,5,1,1,1606195,86905220,-2234773917934280344,1361194031.918386,16268,-3624,936,nan,0.000000
2,5,1,1,1606195,86905220,-2234773917934277723,1361194031.918386,17640,-3336,-128,nan,0.000000
2,5,1,1,1606195,86905220,-2234773917934275102,1361194031.918386,13560,-6208,-768,nan,0.000000
2,5,1,1,1606195,86905220,-2234773917934272481,1361194031.918386,16136,-3920,44,nan,0.000000
2,5,1,1,1606195,86905220,-2234773917934269860,1361194031.918386,14988,-5504,12,nan,0.000000
1,5,2,0,1687450,86905252,-9151322195630970877,1361194031.919137,14644,-7048,908,nan,0.000000
1,5,2,15,1687450,86905252,-9151322195630968256,1361194031.919137,14764,-7312,644,nan,0.000000
2,5,3,15,1687450,86905284,-9151322195630965635,1361194031.919692,18600,-5692,440,nan,0.000000
2,5,3,15,1687450,86905284,-9151322195630963014,1361194031.919692,14356,-1636,-316,nan,0.000000
2,5,3,15,1687450,86905284,-9151322195630960393,1361194031.919692,16452,-64,-2916,nan,0.000000
2,5,3,15,1687450,86905284,-9151322195630957772,1361194031.919692,15660,-4692,-1424,nan,0.000000
2,5,3,15,1687450,86905284,-9151322195630955151,1361194031.919692,14664,-1836,-3280,nan,0.000000
2,5,4,15,1687450,86905316,-9151322195630952530,1361194031.920436,14940,-2916,-2396,nan,0.000000
2,5,4,15,1687450,86905316,-9151322195630949909,1361194031.920436,14988,-3580,-3224,nan,0.000000
2,5,4,15,1687450,86905316,-9151322195630947288,1361194031.920436,14528,-3924,-3660,nan,0.000000
2,5,4,15,1687450,86905316,-9151322195630944667,1361194031.920436,15440,-3988,-3444,nan,0.000000
2,5,4,15,1687450,86905316,-9151322195630942046,1361194031.920436,16616,-5192,-4788,nan,0.000000
2,5,5,15,1687450,86905348,-9151322195630939425,1361194031.921674,21448,-2580,-1024,nan,0.000000
2,5,5,15,1687450,86905348,-9151322195630936804,1361194031.921674,11952,-392,512,nan,0.000000
2,5,5,15,1687450,86905348,-9151322195630934183,1361194031.921674,16812,-1268,-1196,nan,0.000000
2,5,5,15,1687450,86905348,-9151322195630931562,1361194031.921674,14180,-3344,-864,nan,0.000000
2,5,5,15,1687450,86905348,-9151322195630928941,1361194031.921674,14944,-4976,-2264,nan,0.000000
2,5,6,15,1687450,86905380,-9151322195630926320,1361194031.922481,14224,-3992,-2568,nan,0.000000
2,5,6,15,1687450,86905380,-9151322195630923699,1361194031.922481,14636,-4788,-2600,nan,0.000000
2,5,6,15,1687450,86905380,-9151322195630921078,1361194031.922481,14936,-5048,-3028,nan,0.000000
2,5,6,15,1687450,86905380,-9151322195630918457,1361194031.922481,17648,-5504,-2720,nan,0.000000
2,5,6,15,1687450,86905380,-9151322195630915836,1361194031.922481,18424,-1928,428,nan,0.000000
2,5,7,15,1687450,86905412,-9151322195630913215,1361194031.923645,14388,-2064,-1552,nan,0.000000
2,5,7,15,1687450,86905412,-9151322195630910594,1361194031.923645,16844,-6388,-1124,nan,0.000000
2,5,7,15,1687450,86905412,-9151322195630907973,1361194031.923645,13264,-2636,-2752,nan,0.000000
2,5,7,15,1687450,86905412,-9151322195630905352,1361194031.923645,14808,-3024,-2628,nan,0.000000
2,5,7,15,1687450,86905412,-9151322195630902731,1361194031.923645,14376,-5344,-3332,nan,0.000000
2,5,8,15,1687450,86905444,-9151322195630900110,1361194031.924329,15012,-4100,-2688,nan,0.000000
2,5,8,15,1687450,86905444,-9151322195630897489,1361194031.924329,15352,-3580,-4132,nan,0.000000
2,5,8,15,1687450,86905444,-9151322195630894868,1361194031.924329,21300,-5164,-504,nan,0.000000
2,5,8,15,1687450,86905444,-9151322195630892247,1361194031.924329,11636,-2176,220,nan,0.000000
2,5,8,15,1687450,86905444,-9151322195630889626,1361194031.924329,16596,-3132,1568,nan,0.000000
1,5,9,0,1768705,86905476,-2526795424338312971,1361194031.925974,13712,-4692,200,nan,0.000000
1,5,9,0,1768705,86905476,-2526795424338310350,1361194031.925974,15432,-4568,-304,nan,0.000000
2,5,10,0,1768705,86905508,-2526795424338307729,1361194031.928023,15208,-4896,-588,nan,0.000000
2,5,10,0,1768705,86905508,-2526795424338305108,1361194031.928023,14672,-5212,-828,nan,0.000000
2,5,10,0,1768705,86905508,-2526795424338302487,1361194031.928023,15432,-4896,-884,nan,0.000000
2,5,10,0,1768705,86905508,-2526795424338299866,1361194031.928023,19600,-4996,184,nan,0.000000
2,5,10,0,1768705,86905508,-2526795424338297245,1361194031.928023,12548,-1568,440,nan,0.000000
2,5,11,0,1768705,86905540,-2526795424338294624,1361194031.930136,17748,-5608,-3056,nan,0.000000
2,5,11,0,1768705,86905540,-2526795424338292003,1361194031.930136,15448,-3896,-960,nan,0.000000
2,5,11,0,1768705,86905540,-2526795424338289382,1361194031.930136,14068,-2416,-1784,nan,0.000000
2,5,11,0,1768705,86905540,-2526795424338286761,1361194031.930136,15980,-3624,-2628,nan,0.000000
2,5,11,0,1768705,86905540,-2526795424338284140,1361194031.930136,14820,-3972,-1596,nan,0.000000
2,5,12,0,1768705,86905572,-2526795424338281519,1361194031.932388,16184,-3376,-2492,nan,0.000000
2,5,12,0,1768705,86905572,-2526795424338278898,1361194031.932388,16020,-5336,1884,nan,0.000000
2,5,12,0,1768705,86905572,-2526795424338276277,1361194031.932388,13840,-3376,968,nan,0.000000
2,5,12,0,1768705,86905572,-2526795424338273656,1361194031.932388,16764,-3380,-320,nan,0.000000
2,5,12,0,1768705,86905572,-2526795424338271035,1361194031.932388,15332,-4852,-488,nan,0.000000
2,5,13,0,1768705,86905603,-2526795424338268414,1361194031.938721,15120,-5496,1104,nan,0.000000
2,5,13,0,1768705,86905603,-2526795424338265793,1361194031.938721,15872,-4080,168,nan,0.000000
2,5,13,0,1768705,86905603,-2526795424338263172,1361194031.938721,14552,-6088,188,nan,0.000000
2,5,13,0,1768705,86905603,-2526795424338260551,1361194031.938721,14496,-6676,1156,nan,0.000000
2,5,13,0,1768705,86905603,-2526795424338257930,1361194031.938721,13924,-6432,1084,nan,0.000000
2,5,14,0,1768705,86905636,-2526795424338255309,1361194031.940233,19368,-6112,888,nan,0.000000
2,5,14,0,1768705,86905636,-2526795424338252688,1361194031.940233,15556,-2500,816,nan,0.000000
2,5,14,0,1768705,86905636,-2526795424338250067,1361194031.940233,15716,-976,-2028,nan,0.000000
2,5,14,0,1768705,86905636,-2526795424338247446,1361194031.940233,15804,-3772,-336,nan,0.000000
2,5,14,0,1768705,86905636,-2526795424338244825,1361194031.940233,14768,-1296,-2300,nan,0.000000
1,5,0,0,1849962,87636374,-8577293575128448774,1361194054.231799,15924,-2388,348,nan,0.000000
1,5,0,0,1849962,87636374,-8577293575128446153,1361194054.231799,15400,-1528,-1064,nan,0.000000
2,5,1,0,1849962,87636406,-8577293575128443532,1361194054.232701,13512,-4844,-684,nan,0.000000
2,5,1,0,1849962,87636406,-8577293575128440911,1361194054.232701,14464,-4936,-980,nan,0.000000
2,5,1,0,1849962,87636406,-8577293575128438290,1361194054.232701,14328,-4732,-1680,nan,0.000000
2,5,1,0,1849962,87636406,-8577293575128435669,1361194054.232701,14908,-5344,-2032,nan,0.000000
2,5,1,0,1849962,87636406,-8577293575128433048,1361194054.232701,16460,-6404,-2652,nan,0.000000
2,5,2,0,1849962,87636438,-8577293575128430427,1361194054.233594,20972,-3616,656,nan,0.000000
2,5,2,0,1849962,87636438,-8577293575128427806,1361194054.233594,12688,-136,-560,nan,0.000000
2,5,2,0,1849962,87636438,-8577293575128425185,1361194054.233594,16624,-7396,96,nan,0.000000
2,5,2,0,1849962,87636438,-8577293575128422564,1361194054.233594,14224,-3460,-1840,nan,0.000000
2,5,2,0,1849962,87636438,-8577293575128419943,1361194054.233594,14316,-1592,-2076,nan,0.000000
2,5,3,0,1849962,87636470,-8577293575128417322,1361194054.234516,14572,-4956,-2560,nan,0.000000
2,5,3,0,1849962,87636470,-8577293575128414701,1361194054.234516,14964,-4164,-2744,nan,0.000000
2,5,3,0,1849962,87636470,-8577293575128412080,1361194054.234516,15332,-4580,-3280,nan,0.000000
2,5,3,0,1849962,87636470,-8577293575128409459,1361194054.234516,22448,-4784,348,nan,0.000000
2,5,3,0,1849962,87636470,-8577293575128406838,1361194054.234516,9972,-1312,384,nan,0.000000
2,5,4,0,1849962,87636502,-8577293575128404217,1361194054.235471,19360,-1096,-1720,nan,0.000000
2,5,4,0,1849962,87636502,-8577293575128401596,1361194054.235471,14352,-3464,-1448,nan,0.000000
2,5,4,0,1849962,87636502,-8577293575128398975,1361194054.235471,13360,-5272,-1488,nan,0.000000
2,5,4,0,1849962,87636502,-8577293575128396354,1361194054.235471,15380,-4788,-2660,nan,0.000000
2,5,4,0,1849962,87636502,-8577293575128393733,1361194054.235471,14748,-4756,-2380,nan,0.000000
2,5,5,0,1849962,87636534,-8577293575128391112,1361194054.236633,14268,-4352,-2384,nan,0.000000
2,5,5,0,1849962,87636534,-8577293575128388491,1361194054.236633,19780,-4972,-1476,nan,0.000000
2,5,5,0,1849962,87636534,-8577293575128385870,1361194054.236633,13548,-2124,756,nan,0.000000
2,5,5,0,1849962,87636534,-8577293575128383249,1361194054.236633,17284,-5796,-2244,nan,0.000000
2,5,5,0,1849962,87636534,-8577293575128380628,1361194054.236633,16080,-3268,-1124,nan,0.000000
2,5,6,0,1849962,87636566,-8577293575128378007,1361194054.237438,14148,-2072,-1700,nan,0.000000
2,5,6,0,1849962,87636566,-8577293575128375386,1361194054.237438,15760,-4048,-1672,nan,0.000000
2,5,6,0,1849962,87636566,-8577293575128372765,1361194054.237438,15004,-4572,-1140,nan,0.000000
2,5,6,0,1849962,87636566,-8577293575128370144,1361194054.237438,16260,-2948,628,nan,0.000000
2,5,6,0,1849962,87636566,-8577293575128367523,1361194054.237438,15540,-3736,1964,nan,0.000000
1,5,7,0,1931219,87636598,8717052363522530553,1361194054.238241,16460,-5256,-28,nan,0.000000
1,5,7,15,1931219,87636598,8717052363522533174,1361194054.238241,14636,-5332,612,nan,0.000000
2,5,8,15,1931219,87636630,8717052363522535795,1361194054.239493,15636,-5132,760,nan,0.000000
2,5,8,15,1931219,87636630,8717052363522538416,1361194054.239493,15320,-5224,392,nan,0.000000
2,5,8,15,1931219,87636630,8717052363522541037,1361194054.239493,14592,-6628,868,nan,0.000000
2,5,8,15,1931219,87636630,8717052363522543658,1361194054.239493,14888,-6972,944,nan,0.000000
2,5,8,15,1931219,87636630,8717052363522546279,1361194054.239493,14552,-7996,936,nan,0.000000
2,5,9,15,1931219,87636662,8717052363522548900,1361194054.240148,15152,-7672,1016,nan,0.000000
2,5,9,15,1931219,87636662,8717052363522551521,1361194054.240148,17596,-1968,12,nan,0.000000
2,5,9,15,1931219,87636662,8717052363522554142,1361194054.240148,15944,196,-2280,nan,0.000000
2,5,9,15,1931219,87636662,8717052363522556763,1361194054.240148,15608,-4220,-748,nan,0.000000
2,5,9,15,1931219,87636662,8717052363522559384,1361194054.240148,15080,-2152,-2508,nan,0.000000
2,5,10,15,1931219,87636694,8717052363522562005,1361194054.241421,14740,-2740,-1584,nan,0.000000
2,5,10,15,1931219,87636694,8717052363522564626,1361194054.241421,14924,-3716,-2484,nan,0.000000
2,5,10,15,1931219,87636694,8717052363522567247,1361194054.241421,14964,-4012,-2460,nan,0.000000
2,5,10,15,1931219,87636694,8717052363522569868,1361194054.241421,16420,-4184,-3428,nan,0.000000
2,5,10,15,1931219,87636694,8717052363522572489,1361194054.241421,16832,-5152,-4412,nan,0.000000
2,5,11,15,1931219,87636726,8717052363522575110,1361194054.242218,19504,-2216,184,nan,0.000000
2,5,11,15,1931219,87636726,8717052363522577731,1361194054.242218,13224,-2164,1732,nan,0.000000
2,5,11,15,1931219,87636726,8717052363522580352,1361194054.242218,16280,-1788,-704,nan,0.000000
2,5,11,15,1931219,87636726,8717052363522582973,1361194054.242218,14168,-3148,-492,nan,0.000000
2,5,11,15,1931219,87636726,8717052363522585594,1361194054.242218,14240,-4888,-792,nan,0.000000
2,5,12,15,1931219,87636758,8717052363522588215,1361194054.243677,14148,-5008,-2112,nan,0.000000
2,5,12,15,1931219,87636758,8717052363522590836,1361194054.243677,14532,-5048,-2932,nan,0.000000
2,5,12,15,1931219,87636758,8717052363522593457,1361194054.243677,15276,-6140,-2700,nan,0.000000
2,5,12,15,1931219,87636758,8717052363522596078,1361194054.243677,20820,-5900,-2164,nan,0.000000
2,5,12,15,1931219,87636758,8717052363522598699,1361194054.243677,14352,-84,1776,nan,0.000000
2,5,13,15,1931219,87636790,8717052363522601320,1361194054.244203,16428,-5364,-1024,nan,0.000000
2,5,13,15,1931219,87636790,8717052363522603941,1361194054.244203,14500,-5348,36,nan,0.000000
2,5,13,15,1931219,87636790,8717052363522606562,1361194054.244203,14104,-1024,-2668,nan,0.000000
2,5,13,15,1931219,87636790,8717052363522609183,1361194054.244203,14796,-4124,-2376,nan,0.000000
2,5,13,15,1931219,87636790,8717052363522611804,1361194054.244203,14848,-5104,-3004,nan,0.000000
1,5,14,0,2012477,87636822,2594105183763431676,1361194054.245645,19292,-5448,-2740,nan,0.000000
1,5,14,0,2012477,87636822,2594105183763434297,1361194054.245645,14256,-2500,2244,nan,0.000000
2,5,15,0,2012477,87636854,2594105183763436918,1361194054.245917,15768,-3776,788,nan,0.000000
2,5,15,0,2012477,87636854,2594105183763439539,1361194054.245917,15728,-2564,-948,nan,0.000000
2,5,15,0,2012477,87636854,2594105183763442160,1361194054.245917,13932,-5564,136,nan,0.000000
2,5,15,0,2012477,87636854,2594105183763444781,1361194054.245917,15844,-4476,-56,nan,0.000000
2,5,15,0,2012477,87636854,2594105183763447402,1361194054.245917,15500,-4004,-636,nan,0.000000
2,5,0,0,2012477,87636886,2594105183763450023,1361194054.247622,14628,-5772,-128,nan,0.000000
2,5,0,0,2012477,87636886,2594105183763452644,1361194054.247622,14996,-5268,-984,nan,0.000000
2,5,0,0,2012477,87636886,2594105183763455265,1361194054.247622,15216,-5336,-668,nan,0.000000
2,5,0,0,2012477,87636886,2594105183763457886,1361194054.247622,16536,-5900,-780,nan,0.000000
2,5,0,0,2012477,87636886,2594105183763460507,1361194054.247622,17640,-2960,576,nan,0.000000
2,5,1,0,2012477,87636918,2594105183763463128,1361194054.248107,14000,-2060,-1596,nan,0.000000
2,5,1,0,2012477,87636918,2594105183763465749,1361194054.248107,17844,-4488,-1252,nan,0.000000
2,5,1,0,2012477,87636918,2594105183763468370,1361194054.248107,14000,-2244,-1340,nan,0.000000
2,5,1,0,2012477,87636918,2594105183763470991,1361194054.248107,15672,-3104,-1324,nan,0.000000
2,5,1,0,2012477,87636918,2594105183763473612,1361194054.248107,15528,-4220,-1688,nan,0.000000
2,5,2,0,2012477,87636950,2594105183763476233,1361194054.249731,15520,-3660,-856,nan,0.000000
2,5,2,0,2012477,87636950,2594105183763478854,1361194054.249731,15548,-2944,-1576,nan,0.000000
2,5,2,0,2012477,87636950,2594105183763481475,1361194054.249731,15004,-4108,-2084,nan,0.000000
2,5,2,0,2012477,87636950,2594105183763484096,1361194054.249731,17124,-3620,1380,nan,0.000000
2,5,2,0,2012477,87636950,2594105183763486717,1361194054.249731,14272,-2680,1780,nan,0.000000
2,5,3,0,2012477,87636982,2594105183763489338,1361194054.250224,16096,-4140,1752,nan,0.000000
2,5,3,0,2012477,87636982,2594105183763491959,1361194054.250224,16240,-3804,668,nan,0.000000
2,5,3,0,2012477,87636982,2594105183763494580,1361194054.250224,15044,-4952,1572,nan,0.000000
2,5,3,0,2012477,87636982,2594105183763497201,1361194054.250224,15288,-4692,1532,nan,0.000000
2,5,3,0,2012477,87636982,2594105183763499822,1361194054.250224,15044,-4648,1652,nan,0.000000
2,5,4,0,2012477,87637014,2594105183763502443,1361194054.251697,15136,-5528,1820,nan,0.000000
2,5,4,0,2012477,87637014,2594105183763505064,1361194054.251697,14756,-6500,1512,nan,0.000000
2,5,4,0,2012477,87637014,2594105183763507685,1361194054.251697,14556,-7628,1440,nan,0.000000
2,5,4,0,2012477,87637014,2594105183763510306,1361194054.251697,18096,-5712,540,nan,0.000000
2,5,4,0,2012477,87637014,2594105183763512927,1361194054.251697,16216,-244,-208,nan,0.000000
1,5,5,0,2093732,87637046,-1727802367615099897,1361194054.252238,16108,-4200,-704,nan,0.000000
1,5,5,0,2093732,87637046,-1727802367615097276,1361194054.252238,14348,-1640,-2848,nan,0.000000
2,5,6,0,2093732,87637078,-1727802367615094655,1361194054.253563,14496,-2328,-2164,nan,0.000000
2,5,6,0,2093732,87637078,-1727802367615092034,1361194054.253563,14812,-4368,-2828,nan,0.000000
2,5,6,0,2093732,87637078,-1727802367615089413,1361194054.253563,14972,-4368,-2848,nan,0.000000
2,5,6,0,2093732,87637078,-1727802367615086792,1361194054.253563,16684,-3512,-4296,nan,0.000000
2,5,6,0,2093732,87637078,-1727802367615084171,1361194054.253563,19972,-5504,-4128,nan,0.000000
2,5,7,0,2093732,87637110,-1727802367615081550,1361194054.254039,15120,744,2344,nan,0.000000
2,5,7,0,2093732,87637110,-1727802367615078929,1361194054.254039,15848,-2672,-948,nan,0.000000
2,5,7,0,2093732,87637110,-1727802367615076308,1361194054.254039,15108,-748,-1516,nan,0.000000
2,5,7,0,2093732,87637110,-1727802367615073687,1361194054.254039,13680,-4972,-1152,nan,0.000000
2,5,7,0,2093732,87637110,-1727802367615071066,1361194054.254039,14608,-4732,-2664,nan,0.000000
2,5,8,0,2093732,87637142,-1727802367615068445,1361194054.255448,14716,-4392,-2892,nan,0.000000
2,5,8,0,2093732,87637142,-1727802367615065824,1361194054.255448,15044,-5328,-2656,nan,0.000000
2,5,8,0,2093732,87637142,-1727802367615063203,1361194054.255448,17792,-6324,-3576,nan,0.000000
2,5,8,0,2093732,87637142,-1727802367615060582,1361194054.255448,17640,-1328,84,nan,0.000000
2,5,8,0,2093732,87637142,-1727802367615057961,1361194054.255448,14284,-1820,-2444,nan,0.000000
2,5,9,0,2093732,87637174,-1727802367615055340,1361194054.255864,16204,-6764,-1552,nan,0.000000
2,5,9,0,2093732,87637174,-1727802367615052719,1361194054.255864,13588,-2220,-2608,nan,0.000000
2,5,9,0,2093732,87637174,-1727802367615050098,1361194054.255864,15176,-2788,-2764,nan,0.000000
2,5,9,0,2093732,87637174,-1727802367615047477,1361194054.255864,14548,-5552,-3228,nan,0.000000
2,5,9,0,2093732,87637174,-1727802367615044856,1361194054.255864,15284,-3836,-2756,nan,0.000000
2,5,10,0,2093732,87637206,-1727802367615042235,1361194054.257593,14960,-3312,-4212,nan,0.000000
2,5,10,0,2093732,87637206,-1727802367615039614,1361194054.257593,19688,-6000,-1848,nan,0.000000
2,5,10,0,2093732,87637206,-1727802367615036993,1361194054.257593,13804,-1096,908,nan,0.000000
2,5,10,0,2093732,87637206,-1727802367615034372,1361194054.257593,15952,-4168,-340,nan,0.000000
2,5,10,0,2093732,87637206,-1727802367615031751,1361194054.257593,15528,-4260,-1632,nan,0.000000
2,5,11,0,2093732,87637238,-1727802367615029130,1361194054.258206,13540,-4752,-1192,nan,0.000000
2,5,11,0,2093732,87637238,-1727802367615026509,1361194054.258206,15472,-5080,-1212,nan,0.000000
2,5,11,0,2093732,87637238,-1727802367615023888,1361194054.258206,15216,-4840,-1780,nan,0.000000
2,5,11,0,2093732,87637238,-1727802367615021267,1361194054.258206,14732,-5340,-1380,nan,0.000000
2,5,11,0,2093732,87637238,-1727802367615018646,1361194054.258206,16636,-4196,-784,nan,0.000000
1,5,12,0,2174988,87637270,4970611609693870331,1361194054.259524,15140,-2988,464,nan,0.000000
1,5,12,0,2174988,87637270,4970611609693872952,1361194054.259524,17708,-4284,-2116,nan,0.000000
2,5,13,0,2174988,87637302,4970611609693875573,1361194054.259745,14936,-2880,-656,nan,0.000000
2,5,13,0,2174988,87637302,4970611609693878194,1361194054.259745,15328,-2792,-812,nan,0.000000
2,5,13,0,2174988,87637302,4970611609693880815,1361194054.259745,15372,-4176,-1080,nan,0.000000
2,5,13,0,2174988,87637302,4970611609693883436,1361194054.259745,16704,-3976,-660,nan,0.000000
2,5,13,0,2174988,87637302,4970611609693886057,1361194054.259745,15104,-1940,164,nan,0.000000
2,5,14,0,2174988,87637334,4970611609693888678,1361194054.260297,15012,-4852,824,nan,0.000000
2,5,14,0,2174988,87637334,4970611609693891299,1361194054.260297,15444,-4828,-744,nan,0.000000
2,5,14,0,2174988,87637334,4970611609693893920,1361194054.260297,15924,-3408,-1472,nan,0.000000
2,5,14,0,2174988,87637334,4970611609693896541,1361194054.260297,15368,-5264,-772,nan,0.000000
2,5,14,0,2174988,87637334,4970611609693899162,1361194054.260297,15520,-4704,-1088,nan,0.000000
2,5,15,0,2174988,87637365,4970611609693901783,1361194054.261524,14868,-5208,-1076,nan,0.000000
2,5,15,0,2174988,87637365,4970611609693904404,1361194054.261524,14148,-6532,-784,nan,0.000000
2,5,15,0,2174988,87637365,4970611609693907025,1361194054.261524,14600,-7536,496,nan,0.000000
2,5,15,0,2174988,87637365,4970611609693909646,1361194054.261524,17056,-7684,904,nan,0.000000
2,5,15,0,2174988,87637365,4970611609693912267,1361194054.261524,17312,-1504,-1384,nan,0.000000
2,5,0,0,2174988,87637398,4970611609693914888,1361194054.262061,16252,-2828,-3692,nan,0.000000
2,5,0,0,2174988,87637398,4970611609693917509,1361194054.262061,15028,-3152,-1580,nan,0.000000
2,5,0,0,2174988,87637398,4970611609693920130,1361194054.262061,14096,-2088,-2320,nan,0.000000
2,5,0,0,2174988,87637398,4970611609693922751,1361194054.262061,14716,-2860,-2640,nan,0.000000
2,5,0,0,2174988,87637398,4970611609693925372,1361194054.262061,14924,-3464,-3740,nan,0.000000
2,5,1,0,2174988,87637429,4970611609693927993,1361194054.263434,14924,-4768,-3664,nan,0.000000
2,5,1,0,2174988,87637429,4970611609693930614,1361194054.263434,16324,-3984,-5000,nan,0.000000
2,5,1,0,2174988,87637429,4970611609693933235,1361194054.263434,17212,-5288,-5556,nan,0.000000
2,5,1,0,2174988,87637429,4970611609693935856,1361194054.263434,16312,-1256,596,nan,0.000000
2,5,1,0,2174988,87637429,4970611609693938477,1361194054.263434,15156,-3716,-1192,nan,0.000000
2,5,2,0,2174988,87637462,4970611609693941098,1361194054.264096,15176,-2264,-2636,nan,0.000000
2,5,2,0,2174988,87637462,4970611609693943719,1361194054.264096,13444,-4900,-2464,nan,0.000000
2,5,2,0,2174988,87637462,4970611609693946340,1361194054.264096,14276,-5448,-2856,nan,0.000000
2,5,2,0,2174988,87637462,4970611609693948961,1361194054.264096,14132,-4944,-3240,nan,0.000000
2,5,2,0,2174988,87637462,4970611609693951582,1361194054.264096,14912,-6504,-3036,nan,0.000000
1,5,3,0,2256243,87637493,6987014780300342517,1361194054.265441,18824,-4672,-1964,nan,0.000000
1,5,3,0,2256243,87637493,6987014780300345138,1361194054.265441,14620,-1104,-36,nan,0.000000
2,5,4,0,2256243,87637526,6987014780300347759,1361194054.265808,16528,-5860,-2016,nan,0.000000
2,5,4,0,2256243,87637526,6987014780300350380,1361194054.265808,14236,-3656,-1640,nan,0.000000
2,5,4,0,2256243,87637526,6987014780300353001,1361194054.265808,13832,-2452,-2576,nan,0.000000
2,5,4,0,2256243,87637526,6987014780300355622,1361194054.265808,14804,-4996,-3048,nan,0.000000
2,5,4,0,2256243,87637526,6987014780300358243,1361194054.265808,15524,-4908,-3456,nan,0.000000
2,5,5,0,2256243,87637557,6987014780300360864,1361194054.267429,19392,-3968,-3812,nan,0.000000
2,5,5,0,2256243,87637557,6987014780300363485,1361194054.267429,16060,-4192,3048,nan,0.000000
2,5,5,0,2256243,87637557,6987014780300366106,1361194054.267429,12624,-4236,-36,nan,0.000000
2,5,5,0,2256243,87637557,6987014780300368727,1361194054.267429,17700,-3312,-196,nan,0.000000
2,5,5,0,2256243,87637557,6987014780300371348,1361194054.267429,13084,-5736,-416,nan,0.000000
2,5,6,0,2256243,87637590,6987014780300373969,1361194054.267971,14928,-4524,-732,nan,0.000000
2,5,6,0,2256243,87637590,6987014780300376590,1361194054.267971,15480,-5000,-1636,nan,0.000000
2,5,6,0,2256243,87637590,6987014780300379211,1361194054.267971,14568,-6312,-1492,nan,0.000000
2,5,6,0,2256243,87637590,6987014780300381832,1361194054.267971,14620,-5780,-2344,nan,0.000000
2,5,6,0,2256243,87637590,6987014780300384453,1361194054.267971,15604,-6252,-2344,nan,0.000000
2,5,7,0,2256243,87637621,6987014780300387074,1361194054.269440,16920,-5584,-1304,nan,0.000000
2,5,7,0,2256243,87637621,6987014780300389695,1361194054.269440,13340,-3312,-636,nan,0.000000
2,5,7,0,2256243,87637621,6987014780300392316,1361194054.269440,16764,-3644,-3640,nan,0.000000
2,5,7,0,2256243,87637621,6987014780300394937,1361194054.269440,15636,-5724,-2596,nan,0.000000
2,5,7,0,2256243,87637621,6987014780300397558,1361194054.269440,14412,-4496,-1944,nan,0.000000
2,5,8,0,2256243,87637654,6987014780300400179,1361194054.270136,15324,-4420,-3292,nan,0.000000
2,5,8,0,2256243,87637654,6987014780300402800,1361194054.270136,15000,-4136,-3452,nan,0.000000
2,5,8,0,2256243,87637654,6987014780300405421,1361194054.270136,14712,-4024,-3520,nan,0.000000
2,5,8,0,2256243,87637654,6987014780300408042,1361194054.270136,14976,-4704,-3812,nan,0.000000
2,5,8,0,2256243,87637654,6987014780300410663,1361194054.270136,14692,-4248,-3704,nan,0.000000
2,5,9,0,2256243,87637685,6987014780300413284,1361194054.271429,14632,-4440,-3460,nan,0.000000
2,5,9,0,2256243,87637685,6987014780300415905,1361194054.271429,14356,-5140,-4120,nan,0.000000
2,5,9,0,2256243,87637685,6987014780300418526,1361194054.271429,18468,-5492,-640,nan,0.000000
2,5,9,0,2256243,87637685,6987014780300421147,1361194054.271429,12160,-1788,-1344,nan,0.000000
2,5,9,0,2256243,87637685,6987014780300423768,1361194054.271429,17964,-4856,80,nan,0.000000
1,5,10,0,2337501,87637717,-1661849243075707662,1361194054.273733,14652,-4404,-380,nan,0.000000
1,5,10,0,2337501,87637717,-1661849243075705041,1361194054.273733,15572,-5064,-580,nan,0.000000
2,5,11,0,2337501,87637749,-1661849243075702420,1361194054.273987,15268,-5020,-112,nan,0.000000
2,5,11,0,2337501,87637749,-1661849243075699799,1361194054.273987,14696,-5428,260,nan,0.000000
2,5,11,0,2337501,87637749,-1661849243075697178,1361194054.273987,14516,-6240,1080,nan,0.000000
2,5,11,0,2337501,87637749,-1661849243075694557,1361194054.273987,17560,-4332,500,nan,0.000000
2,5,11,0,2337501,87637749,-1661849243075691936,1361194054.273987,17376,-3020,-2052,nan,0.000000
2,5,12,0,2337501,87637781,-1661849243075689315,1361194054.274352,16280,-1524,-3068,nan,0.000000
2,5,12,0,2337501,87637781,-1661849243075686694,1361194054.274352,15720,-2072,-1760,nan,0.000000
2,5,12,0,2337501,87637781,-1661849243075684073,1361194054.274352,14176,-1560,-3376,nan,0.000000
2,5,12,0,2337501,87637781,-1661849243075681452,1361194054.274352,14972,-2808,-2096,nan,0.000000
2,5,12,0,2337501,87637781,-1661849243075678831,1361194054.274352,15392,-3688,-2640,nan,0.000000
2,5,13,0,2337501,87637813,-1661849243075676210,1361194054.275688,14556,-3872,-3372,nan,0.000000
2,5,13,0,2337501,87637813,-1661849243075673589,1361194054.275688,15216,-4372,-2932,nan,0.000000
2,5,13,0,2337501,87637813,-1661849243075670968,1361194054.275688,15752,-4632,-4388,nan,0.000000
2,5,13,0,2337501,87637813,-1661849243075668347,1361194054.275688,21220,-2976,-464,nan,0.000000
2,5,13,0,2337501,87637813,-1661849243075665726,1361194054.275688,12168,-920,912,nan,0.000000
2,5,14,0,2337501,87637845,-1661849243075663105,1361194054.276187,17860,-1160,-2460,nan,0.000000
2,5,14,0,2337501,87637845,-1661849243075660484,1361194054.276187,13588,-4044,-1408,nan,0.000000
2,5,14,0,2337501,87637845,-1661849243075657863,1361194054.276187,14184,-4228,-1604,nan,0.000000
2,5,14,0,2337501,87637845,-1661849243075655242,1361194054.276187,15156,-4064,-2172,nan,0.000000
2,5,14,0,2337501,87637845,-1661849243075652621,1361194054.276187,14648,-4856,-2284,nan,0.000000
2,5,15,0,2337501,87637877,-1661849243075650000,1361194054.277580,15460,-5824,-3100,nan,0.000000
2,5,15,0,2337501,87637877,-1661849243075647379,1361194054.277580,18192,-5100,-3040,nan,0.000000
2,5,15,0,2337501,87637877,-1661849243075644758,1361194054.277580,15924,848,-344,nan,0.000000
2,5,15,0,2337501,87637877,-1661849243075642137,1361194054.277580,16268,-5048,-3316,nan,0.000000
2,5,15,0,2337501,87637877,-1661849243075639516,1361194054.277580,14976,-4032,-1380,nan,0.000000
2,5,0,0,2337501,87637909,-1661849243075636895,1361194054.278002,13620,-1144,-3712,nan,0.000000
2,5,0,0,2337501,87637909,-1661849243075634274,1361194054.278002,15068,-2820,-3732,nan,0.000000
2,5,0,0,2337501,87637909,-1661849243075631653,1361194054.278002,14596,-3372,-4388,nan,0.000000
2,5,0,0,2337501,87637909,-1661849243075629032,1361194054.278002,14668,-2240,-4728,nan,0.000000
2,5,0,0,2337501,87637909,-1661849243075626411,1361194054.278002,20824,-4992,-4316,nan,0.000000
1,5,1,0,2418758,87637941,7850333754080526577,1361194054.283784,12804,-1744,356,nan,0.000000
1,5,1,0,2418758,87637941,7850333754080529198,1361194054.283784,18280,-1180,-2532,nan,0.000000
2,5,2,0,2418758,87637973,7850333754080531819,1361194054.291011,14488,-4388,-968,nan,0.000000
2,5,2,0,2418758,87637973,7850333754080534440,1361194054.291011,15296,-2996,-1772,nan,0.000000
2,5,2,0,2418758,87637973,7850333754080537061,1361194054.291011,15588,-4016,-1232,nan,0.000000
2,5,2,0,2418758,87637973,7850333754080539682,1361194054.291011,14212,-4808,-1072,nan,0.000000
2,5,2,0,2418758,87637973,7850333754080542303,1361194054.291011,15916,-4020,-856,nan,0.000000
2,5,3,0,2418758,87638005,7850333754080544924,1361194054.293414,15116,-1300,-1812,nan,0.000000
2,5,3,0,2418758,87638005,7850333754080547545,1361194054.293414,17624,-1124,-3988,nan,0.000000
2,5,3,0,2418758,87638005,7850333754080550166,1361194054.293414,16220,-3052,-1996,nan,0.000000
2,5,3,0,2418758,87638005,7850333754080552787,1361194054.293414,15332,-2848,-3044,nan,0.000000
2,5,3,0,2418758,87638005,7850333754080555408,1361194054.293414,15712,-2928,-2972,nan,0.000000
2,5,4,0,2418758,87638041,7850333754080558029,1361194054.296712,15224,-2572,-3108,nan,0.000000
2,5,4,0,2418758,87638041,7850333754080560650,1361194054.296712,15592,-1172,-3556,nan,0.000000
2,5,4,0,2418758,87638041,7850333754080563271,1361194054.296712,16008,-1384,-3704,nan,0.000000
2,5,4,0,2418758,87638041,7850333754080565892,1361194054.296712,15120,-1304,-3748,nan,0.000000
2,5,4,0,2418758,87638041,7850333754080568513,1361194054.296712,16560,-2380,-2560,nan,0.000000
2,5,5,0,2418758,87638073,7850333754080571134,1361194054.299115,16852,-2400,-700,nan,0.000000
2,5,5,0,2418758,87638073,7850333754080573755,1361194054.299115,14740,-4636,-1288,nan,0.000000
2,5,5,0,2418758,87638073,7850333754080576376,1361194054.299115,15920,-4332,-896,nan,0.000000
2,5,5,0,2418758,87638073,7850333754080578997,1361194054.299115,14072,-6016,-1116,nan,0.000000
2,5,5,0,2418758,87638073,7850333754080581618,1361194054.299115,14608,-5136,-1772,nan,0.000000
2,5,6,0,2418758,87638105,7850333754080584239,1361194054.302537,14860,-4904,-2244,nan,0.000000
2,5,6,0,2418758,87638105,7850333754080586860,1361194054.302537,15200,-5048,-1868,nan,0.000000
2,5,6,0,2418758,87638105,7850333754080589481,1361194054.302537,15240,-5832,-2268,nan,0.000000
2,5,6,0,2418758,87638105,7850333754080592102,1361194054.302537,15552,-6428,-2988,nan,0.000000
2,5,6,0,2418758,87638105,7850333754080594723,1361194054.302537,19368,-4772,-808,nan,0.000000
2,5,7,0,2418758,87638137,7850333754080597344,1361194054.307757,13004,1036,652,nan,0.000000
2,5,7,0,2418758,87638137,7850333754080599965,1361194054.307757,17748,-6052,-1952,nan,0.000000
2,5,7,0,2418758,87638137,7850333754080602586,1361194054.307757,13964,-4448,-1312,nan,0.000000
2,5,7,0,2418758,87638137,7850333754080605207,1361194054.307757,14220,-1448,-2644,nan,0.000000
2,5,7,0,2418758,87638137,7850333754080607828,1361194054.307757,15064,-3704,-2620,nan,0.000000
1,5,8,0,2500015,87638169,6987436974781336578,1361194054.310884,15820,-3220,-4028,nan,0.000000
1,5,8,0,2500015,87638169,6987436974781339199,1361194054.310884,16112,-4196,-5124,nan,0.000000
2,5,9,0,2500015,87638201,6987436974781341820,1361194054.312857,21128,-3640,1096,nan,0.000000
2,5,9,0,2500015,87638201,6987436974781344441,1361194054.312857,11088,-2260,700,nan,0.000000
2,5,9,0,2500015,87638201,6987436974781347062,1361194054.312857,17656,-2340,-1384,nan,0.000000
2,5,9,0,2500015,87638201,6987436974781349683,1361194054.312857,14264,-3928,-1072,nan,0.000000
2,5,9,0,2500015,87638201,6987436974781352304,1361194054.312857,14004,-5332,-968,nan,0.000000
2,5,10,0,2500015,87638233,6987436974781354925,1361194054.321849,14640,-4808,-2256,nan,0.000000
2,5,10,0,2500015,87638233,6987436974781357546,1361194054.321849,14580,-4940,-2420,nan,0.000000
2,5,10,0,2500015,87638233,6987436974781360167,1361194054.321849,14860,-5380,-2512,nan,0.000000
2,5,10,0,2500015,87638233,6987436974781362788,1361194054.321849,20688,-6360,-1256,nan,0.000000
2,5,10,0,2500015,87638233,6987436974781365409,1361194054.321849,12728,-2236,768,nan,0.000000
2,5,11,0,2500015,87638265,6987436974781368030,1361194054.325055,16160,-4832,-424,nan,0.000000
2,5,11,0,2500015,87638265,6987436974781370651,1361194054.325055,16676,-5492,-352,nan,0.000000
2,5,11,0,2500015,87638265,6987436974781373272,1361194054.325055,13996,-1968,-1428,nan,0.000000
2,5,11,0,2500015,87638265,6987436974781375893,1361194054.325055,15864,-3920,-1324,nan,0.000000
2,5,11,0,2500015,87638265,6987436974781378514,1361194054.325055,15264,-4264,-1376,nan,0.000000
2,5,12,0,2500015,87638297,6987436974781381135,1361194054.328169,14896,-3324,-928,nan,0.000000
2,5,12,0,2500015,87638297,6987436974781383756,1361194054.328169,15844,-3036,-2068,nan,0.000000
2,5,12,0,2500015,87638297,6987436974781386377,1361194054.328169,17128,-3656,-1076,nan,0.000000
2,5,12,0,2500015,87638297,6987436974781388998,1361194054.328169,14708,-3784,1556,nan,0.000000
2,5,12,0,2500015,87638297,6987436974781391619,1361194054.328169,13836,-4152,740,nan,0.000000
2,5,13,0,2500015,87638329,6987436974781394240,1361194054.334832,16872,-4584,576,nan,0.000000
2,5,13,0,2500015,87638329,6987436974781396861,1361194054.334832,16700,-2580,-624,nan,0.000000
2,5,13,0,2500015,87638329,6987436974781399482,1361194054.334832,14456,-5528,-528,nan,0.000000
2,5,13,0,2500015,87638329,6987436974781402103,1361194054.334832,15412,-5104,-76,nan,0.000000
2,5,13,0,2500015,87638329,6987436974781404724,1361194054.334832,16220,-3596,-104,nan,0.000000
2,5,14,0,2500015,87638361,6987436974781407345,1361194056.709790,15228,-4228,-472,nan,0.000000
2,5,14,0,2500015,87638361,6987436974781409966,1361194056.709790,15020,-5316,-140,nan,0.000000
2,5,14,0,2500015,87638361,6987436974781412587,1361194056.709790,15128,-5952,-192,nan,0.000000
2,5,14,0,2500015,87638361,6987436974781415208,1361194056.709790,15328,-5048,12,nan,0.000000
2,5,14,0,2500015,87638361,6987436974781417829,1361194056.709790,16128,-2712,-904,nan,0.000000
1,5,15,0,2581271,87717634,8430524010365331710,1361194056.713986,15804,-2004,-2444,nan,0.000000
1,5,15,0,2581271,87717634,8430524010365334331,1361194056.713986,16828,-2860,-2680,nan,0.000000
2,5,0,0,2581271,87717666,8430524010365336952,1361194056.720110,14596,-1028,-2972,nan,0.000000
2,5,0,0,2581271,87717666,8430524010365339573,1361194056.720110,15180,-2008,-3108,nan,0.000000
2,5,0,0,2581271,87717666,8430524010365342194,1361194056.720110,15592,-3260,-2788,nan,0.000000
2,5,0,0,2581271,87717666,8430524010365344815,1361194056.720110,14908,-2984,-3244,nan,0.000000
2,5,0,0,2581271,87717666,8430524010365347436,1361194056.720110,15180,-3060,-3180,nan,0.000000
2,5,1,0,2581271,87717698,8430524010365350057,1361194056.720594,15696,-3944,-3632,nan,0.000000
2,5,1,0,2581271,87717698,8430524010365352678,1361194056.720594,20588,-2864,-3428,nan,0.000000
2,5,1,0,2581271,87717698,8430524010365355299,1361194056.720594,14456,-1180,-584,nan,0.000000
2,5,1,0,2581271,87717698,8430524010365357920,1361194056.720594,13924,-1276,-236,nan,0.000000
2,5,1,0,2581271,87717698,8430524010365360541,1361194056.720594,17624,-2036,-2292,nan,0.000000
2,5,2,0,2581271,87717730,8430524010365363162,1361194056.721034,13860,-3932,-1724,nan,0.000000
2,5,2,0,2581271,87717730,8430524010365365783,1361194056.721034,14568,-3936,-1436,nan,0.000000
2,5,2,0,2581271,87717730,8430524010365368404,1361194056.721034,15208,-4380,-1872,nan,0.000000
2,5,2,0,2581271,87717730,8430524010365371025,1361194056.721034,14920,-5072,-2056,nan,0.000000
2,5,2,0,2581271,87717730,8430524010365373646,1361194056.721034,14848,-5392,-2300,nan,0.000000
2,5,3,0,2581271,87717762,8430524010365376267,1361194056.721465,15852,-6276,-2028,nan,0.000000
2,5,3,0,2581271,87717762,8430524010365378888,1361194056.721465,20484,-3268,-1448,nan,0.000000
2,5,3,0,2581271,87717762,8430524010365381509,1361194056.721465,11724,1012,-496,nan,0.000000
2,5,3,0,2581271,87717762,8430524010365384130,1361194056.721465,17944,-5336,-2376,nan,0.000000
2,5,3,0,2581271,87717762,8430524010365386751,1361194056.721465,14972,-2764,-2396,nan,0.000000
2,5,4,0,2581271,87717794,8430524010365389372,1361194056.721895,14168,-1436,-2620,nan,0.000000
2,5,4,0,2581271,87717794,8430524010365391993,1361194056.721895,15404,-3876,-2708,nan,0.000000
2,5,4,0,2581271,87717794,8430524010365394614,1361194056.721895,15020,-4008,-2900,nan,0.000000
2,5,4,0,2581271,87717794,8430524010365397235,1361194056.721895,14848,-2836,-3704,nan,0.000000
2,5,4,0,2581271,87717794,8430524010365399856,1361194056.721895,15556,-4988,-4460,nan,0.000000
2,5,5,0,2581271,87717826,8430524010365402477,1361194059.191706,20456,-2812,-2060,nan,0.000000
2,5,5,0,2581271,87717826,8430524010365405098,1361194059.191706,13328,-480,-192,nan,0.000000
2,5,5,0,2581271,87717826,8430524010365407719,1361194059.191706,16100,-1156,-316,nan,0.000000
2,5,5,0,2581271,87717826,8430524010365410340,1361194059.191706,17312,-2408,-1968,nan,0.000000
2,5,5,0,2581271,87717826,8430524010365412961,1361194059.191706,14224,-4056,-1164,nan,0.000000
1,5,6,0,2662528,87798914,4683498413054293239,1361194059.192667,15140,-5044,-2272,nan,0.000000
1,5,6,0,2662528,87798914,4683498413054295860,1361194059.192667,14972,-4772,-2304,nan,0.000000
2,5,7,0,2662528,87798945,4683498413054298481,1361194059.193381,16172,-3532,-2112,nan,0.000000
2,5,7,0,2662528,87798945,4683498413054301102,1361194059.193381,14736,-4352,-1160,nan,0.000000
2,5,7,0,2662528,87798945,4683498413054303723,1361194059.193381,14428,-2372,-2628,nan,0.000000
2,5,7,0,2662528,87798945,4683498413054306344,1361194059.193381,16460,-1740,-3260,nan,0.000000
2,5,7,0,2662528,87798945,4683498413054308965,1361194059.193381,16900,-2748,-3324,nan,0.000000
2,5,8,0,2662528,87798978,4683498413054311586,1361194059.194331,15096,-1768,-3784,nan,0.000000
2,5,8,0,2662528,87798978,4683498413054314207,1361194059.194331,15332,-2320,-3868,nan,0.000000
2,5,8,0,2662528,87798978,4683498413054316828,1361194059.194331,15744,-2776,-3128,nan,0.000000
2,5,8,0,2662528,87798978,4683498413054319449,1361194059.194331,15604,-2008,-3380,nan,0.000000
2,5,8,0,2662528,87798978,4683498413054322070,1361194059.194331,15308,-1144,-3880,nan,0.000000
2,5,9,0,2662528,87799009,4683498413054324691,1361194059.195418,15664,-1528,-3720,nan,0.000000
2,5,9,0,2662528,87799009,4683498413054327312,1361194059.195418,15492,-1496,-4256,nan,0.000000
2,5,9,0,2662528,87799009,4683498413054329933,1361194059.195418,14776,-872,-4612,nan,0.000000
2,5,9,0,2662528,87799009,4683498413054332554,1361194059.195418,17912,-2100,-2360,nan,0.000000
2,5,9,0,2662528,87799009,4683498413054335175,1361194059.195418,15744,-644,-1120,nan,0.000000
2,5,10,0,2662528,87799042,4683498413054337796,1361194059.196154,15436,-3148,-1812,nan,0.000000
2,5,10,0,2662528,87799042,4683498413054340417,1361194059.196154,15820,-4284,-1368,nan,0.000000
2,5,10,0,2662528,87799042,4683498413054343038,1361194059.196154,14916,-4596,-1120,nan,0.000000
2,5,10,0,2662528,87799042,4683498413054345659,1361194059.196154,14748,-5052,-1976,nan,0.000000
2,5,10,0,2662528,87799042,4683498413054348280,1361194059.196154,15032,-4344,-2428,nan,0.000000
2,5,11,0,2662528,87799073,4683498413054350901,1361194059.197401,14776,-4992,-2668,nan,0.000000
2,5,11,0,2662528,87799073,4683498413054353522,1361194059.197401,14972,-4412,-2700,nan,0.000000
2,5,11,0,2662528,87799073,4683498413054356143,1361194059.197401,15288,-5484,-2532,nan,0.000000
2,5,11,0,2662528,87799073,4683498413054358764,1361194059.197401,15280,-5660,-3940,nan,0.000000
2,5,11,0,2662528,87799073,4683498413054361385,1361194059.197401,19168,-4620,-1444,nan,0.000000
2,5,12,0,2662528,87799106,4683498413054364006,1361194061.671763,13456,24,452,nan,0.000000
2,5,12,0,2662528,87799106,4683498413054366627,1361194061.671763,17316,-5656,-1800,nan,0.000000
2,5,12,0,2662528,87799106,4683498413054369248,1361194061.671763,14468,-4592,-1944,nan,0.000000
2,5,12,0,2662528,87799106,4683498413054371869,1361194061.671763,14140,-2240,-2540,nan,0.000000
2,5,12,0,2662528,87799106,4683498413054374490,1361194061.671763,14724,-3732,-2908,nan,0.000000
1,5,13,0,2743784,87880228,-506398867898252287,1361194061.673390,15052,-3780,-3392,nan,0.000000
1,5,13,0,2743784,87880228,-506398867898249666,1361194061.673390,15480,-3900,-3920,nan,0.000000
2,5,14,0,2743784,87880260,-506398867898247045,1361194061.673980,20296,-5160,-3292,nan,0.000000
2,5,14,0,2743784,87880260,-506398867898244424,1361194061.673980,13960,-32,1668,nan,0.000000
2,5,14,0,2743784,87880260,-506398867898241803,1361194061.673980,16772,-3300,-336,nan,0.000000
2,5,14,0,2743784,87880260,-506398867898239182,1361194061.673980,15092,-1428,-2212,nan,0.000000
2,5,14,0,2743784,87880260,-506398867898236561,1361194061.673980,14044,-4952,-1408,nan,0.000000
2,5,15,0,2743784,87880292,-506398867898233940,1361194061.677208,14448,-4848,-2448,nan,0.000000
2,5,15,0,2743784,87880292,-506398867898231319,1361194061.677208,14748,-4212,-2572,nan,0.000000
2,5,15,0,2743784,87880292,-506398867898228698,1361194061.677208,14692,-4952,-2624,nan,0.000000
2,5,15,0,2743784,87880292,-506398867898226077,1361194061.677208,14960,-5764,-3472,nan,0.000000
2,5,15,0,2743784,87880292,-506398867898223456,1361194061.677208,19352,-4268,-2624,nan,0.000000
2,5,0,0,2743784,87880324,-506398867898220835,1361194061.680511,14024,-2060,648,nan,0.000000
2,5,0,0,2743784,87880324,-506398867898218214,1361194061.680511,16768,-4692,-2384,nan,0.000000
2,5,0,0,2743784,87880324,-506398867898215593,1361194061.680511,15988,-4480,-1960,nan,0.000000
2,5,0,0,2743784,87880324,-506398867898212972,1361194061.680511,13592,-1864,-3040,nan,0.000000
2,5,0,0,2743784,87880324,-506398867898210351,1361194061.680511,15656,-3540,-2980,nan,0.000000
2,5,1,0,2743784,87880356,-506398867898207730,1361194061.692001,15416,-3704,-3308,nan,0.000000
2,5,1,0,2743784,87880356,-506398867898205109,1361194061.692001,16536,-2612,-3340,nan,0.000000
2,5,1,0,2743784,87880356,-506398867898202488,1361194061.692001,14916,-2676,-724,nan,0.000000
2,5,1,0,2743784,87880356,-506398867898199867,1361194061.692001,16092,-4636,-300,nan,0.000000
2,5,1,0,2743784,87880356,-506398867898197246,1361194061.692001,15048,-4712,-1340,nan,0.000000
2,5,2,0,2743784,87880388,-506398867898194625,1361194061.693877,15188,-5332,-1920,nan,0.000000
2,5,2,0,2743784,87880388,-506398867898192004,1361194061.693877,14460,-5948,-888,nan,0.000000
2,5,2,0,2743784,87880388,-506398867898189383,1361194061.693877,15368,-4576,-1288,nan,0.000000
2,5,2,0,2743784,87880388,-506398867898186762,1361194061.693877,15916,-4128,-828,nan,0.000000
2,5,2,0,2743784,87880388,-506398867898184141,1361194061.693877,15216,-5424,-620,nan,0.000000
1,5,4,0,2825041,88367728,3530273362775126268,1361194076.551488,15320,-4480,140,nan,0.000000
1,5,4,0,2825041,88367728,3530273362775128889,1361194076.551488,14888,-4316,-992,nan,0.000000
2,5,5,0,2825041,88367760,3530273362775131510,1361194076.552304,15488,-3440,-2088,nan,0.000000
2,5,5,0,2825041,88367760,3530273362775134131,1361194076.552304,17700,-4648,-3240,nan,0.000000
2,5,5,0,2825041,88367760,3530273362775136752,1361194076.552304,15872,-2956,-2032,nan,0.000000
2,5,5,0,2825041,88367760,3530273362775139373,1361194076.552304,14440,-1768,-3868,nan,0.000000
2,5,5,0,2825041,88367760,3530273362775141994,1361194076.552304,14648,-3760,-2800,nan,0.000000
2,5,6,0,2825041,88367792,3530273362775144615,1361194076.553262,15500,-3556,-2408,nan,0.000000
2,5,6,0,2825041,88367792,3530273362775147236,1361194076.553262,15288,-3668,-2648,nan,0.000000
2,5,6,0,2825041,88367792,3530273362775149857,1361194076.553262,15336,-3532,-2724,nan,0.000000
2,5,6,0,2825041,88367792,3530273362775152478,1361194076.553262,15768,-3524,-3568,nan,0.000000
2,5,6,0,2825041,88367792,3530273362775155099,1361194076.553262,14976,-4168,-3928,nan,0.000000
2,5,7,0,2825041,88367824,3530273362775157720,1361194076.554041,19992,-4548,-2036,nan,0.000000
2,5,7,0,2825041,88367824,3530273362775160341,1361194076.554041,13688,-968,832,nan,0.000000
2,5,7,0,2825041,88367824,3530273362775162962,1361194076.554041,16116,-3148,1116,nan,0.000000
2,5,7,0,2825041,88367824,3530273362775165583,1361194076.554041,15768,-2048,-1996,nan,0.000000
2,5,7,0,2825041,88367824,3530273362775168204,1361194076.554041,14176,-4444,-612,nan,0.000000
2,5,8,0,2825041,88367856,3530273362775170825,1361194076.555189,14976,-4548,-1040,nan,0.000000
2,5,8,0,2825041,88367856,3530273362775173446,1361194076.555189,15376,-4424,-1724,nan,0.000000
2,5,8,0,2825041,88367856,3530273362775176067,1361194076.555189,14832,-5392,-1636,nan,0.000000
2,5,8,0,2825041,88367856,3530273362775178688,1361194076.555189,15076,-6492,-2468,nan,0.000000
2,5,8,0,2825041,88367856,3530273362775181309,1361194076.555189,16636,-6200,-2444,nan,0.000000
2,5,9,0,2825041,88367888,3530273362775183930,1361194076.556008,17752,-352,180,nan,0.000000
2,5,9,0,2825041,88367888,3530273362775186551,1361194076.556008,14440,-2996,-2200,nan,0.000000
2,5,9,0,2825041,88367888,3530273362775189172,1361194076.556008,16564,-5624,-1272,nan,0.000000
2,5,9,0,2825041,88367888,3530273362775191793,1361194076.556008,13924,-1740,-3396,nan,0.000000
2,5,9,0,2825041,88367888,3530273362775194414,1361194076.556008,14848,-2800,-2732,nan,0.000000
2,5,10,0,2825041,88367920,3530273362775197035,1361194076.557327,14504,-4888,-3528,nan,0.000000
2,5,10,0,2825041,88367920,3530273362775199656,1361194076.557327,14876,-3588,-3336,nan,0.000000
2,5,10,0,2825041,88367920,3530273362775202277,1361194076.557327,15428,-3444,-4476,nan,0.000000
2,5,10,0,2825041,88367920,3530273362775204898,1361194076.557327,22316,-4936,-1676,nan,0.000000
2,5,10,0,2825041,88367920,3530273362775207519,1361194076.557327,10012,-744,436,nan,0.000000
1,5,11,0,2906301,88367952,-508065695448549134,1361194076.558381,14200,-2988,-1568,nan,0.000000
1,5,11,15,2906301,88367952,-508065695448546513,1361194076.558381,13828,-5216,-900,nan,0.000000
2,5,12,15,2906301,88367983,-508065695448543892,1361194076.559169,15296,-4328,-1972,nan,0.000000
2,5,12,15,2906301,88367983,-508065695448541271,1361194076.559169,15120,-4608,-2172,nan,0.000000
2,5,12,15,2906301,88367983,-508065695448538650,1361194076.559169,14100,-5396,-2220,nan,0.000000
2,5,12,15,2906301,88367983,-508065695448536029,1361194076.559169,14280,-5364,-2088,nan,0.000000
2,5,12,15,2906301,88367983,-508065695448533408,1361194076.559169,19412,-5484,-1488,nan,0.000000
2,5,13,15,2906301,88368016,-508065695448530787,1361194076.559873,16084,-3156,608,nan,0.000000
2,5,13,15,2906301,88368016,-508065695448528166,1361194076.559873,13304,-2080,-32,nan,0.000000
2,5,13,15,2906301,88368016,-508065695448525545,1361194076.559873,18376,-6352,-1552,nan,0.000000
2,5,13,15,2906301,88368016,-508065695448522924,1361194076.559873,13828,-2936,-1312,nan,0.000000
2,5,13,15,2906301,88368016,-508065695448520303,1361194076.559873,14960,-3348,-1524,nan,0.000000
2,5,14,15,2906301,88368048,-508065695448517682,1361194076.561186,15508,-4732,-2208,nan,0.000000
2,5,14,15,2906301,88368048,-508065695448515061,1361194076.561186,14832,-4032,-1704,nan,0.000000
2,5,14,15,2906301,88368048,-508065695448512440,1361194076.561186,15828,-2808,-2956,nan,0.000000
2,5,14,15,2906301,88368048,-508065695448509819,1361194076.561186,16816,-5300,-820,nan,0.000000
2,5,14,15,2906301,88368048,-508065695448507198,1361194076.561186,14664,-2724,1648,nan,0.000000
2,5,15,15,2906301,88368080,-508065695448504577,1361194076.561989,15072,-3640,332,nan,0.000000
2,5,15,15,2906301,88368080,-508065695448501956,1361194076.561989,16448,-4824,708,nan,0.000000
2,5,15,15,2906301,88368080,-508065695448499335,1361194076.561989,15516,-3676,-520,nan,0.000000
2,5,15,15,2906301,88368080,-508065695448496714,1361194076.561989,14728,-5604,320,nan,0.000000
2,5,15,15,2906301,88368080,-508065695448494093,1361194076.561989,15332,-4980,648,nan,0.000000
2,5,0,15,2906301,88368112,-508065695448491472,1361194076.563332,15816,-4544,360,nan,0.000000
2,5,0,15,2906301,88368112,-508065695448488851,1361194076.563332,15248,-5052,248,nan,0.000000
2,5,0,15,2906301,88368112,-508065695448486230,1361194076.563332,14784,-5912,404,nan,0.000000
2,5,0,15,2906301,88368112,-508065695448483609,1361194076.563332,14732,-6496,656,nan,0.000000
2,5,0,15,2906301,88368112,-508065695448480988,1361194076.563332,14792,-6976,164,nan,0.000000
2,5,1,15,2906301,88368144,-508065695448478367,1361194076.563948,18348,-6336,-48,nan,0.000000
2,5,1,15,2906301,88368144,-508065695448475746,1361194076.563948,13940,-3272,60,nan,0.000000
2,5,1,15,2906301,88368144,-508065695448473125,1361194076.563948,16008,184,-2264,nan,0.000000
2,5,1,15,2906301,88368144,-508065695448470504,1361194076.563948,16564,-4808,-1432,nan,0.000000
2,5,1,15,2906301,88368144,-508065695448467883,1361194076.563948,14788,-1256,-2548,nan,0.000000
1,5,2,0,2987560,88368175,4323518260553634047,1361194076.565210,15368,-3756,-2696,nan,0.000000
1,5,2,0,2987560,88368175,4323518260553636668,1361194076.565210,14984,-3636,-2692,nan,0.000000
2,5,3,0,2987560,88368208,4323518260553639289,1361194076.565739,15320,-2748,-3208,nan,0.000000
2,5,3,0,2987560,88368208,4323518260553641910,1361194076.565739,15308,-3620,-4184,nan,0.000000
2,5,3,0,2987560,88368208,4323518260553644531,1361194076.565739,18388,-4924,-3528,nan,0.000000
2,5,3,0,2987560,88368208,4323518260553647152,1361194076.565739,15680,-668,1712,nan,0.000000
2,5,3,0,2987560,88368208,4323518260553649773,1361194076.565739,14892,-2832,-104,nan,0.000000
2,5,4,0,2987560,88368239,4323518260553652394,1361194076.567255,16780,-2276,-1876,nan,0.000000
2,5,4,0,2987560,88368239,4323518260553655015,1361194076.567255,13656,-3868,-1360,nan,0.000000
2,5,4,0,2987560,88368239,4323518260553657636,1361194076.567255,14932,-4940,-1412,nan,0.000000
2,5,4,0,2987560,88368239,4323518260553660257,1361194076.567255,15200,-3832,-1976,nan,0.000000
2,5,4,0,2987560,88368239,4323518260553662878,1361194076.567255,14960,-4280,-2056,nan,0.000000
2,5,5,0,2987560,88368272,4323518260553665499,1361194076.567791,14504,-6056,-1804,nan,0.000000
2,5,5,0,2987560,88368272,4323518260553668120,1361194076.567791,18388,-6072,-1664,nan,0.000000
2,5,5,0,2987560,88368272,4323518260553670741,1361194076.567791,17876,-3004,-304,nan,0.000000
2,5,5,0,2987560,88368272,4323518260553673362,1361194076.567791,12144,104,60,nan,0.000000
2,5,5,0,2987560,88368272,4323518260553675983,1361194076.567791,18412,-6268,-1520,nan,0.000000
2,5,6,0,2987560,88368303,4323518260553678604,1361194076.569195,13940,-2436,-2164,nan,0.000000
2,5,6,0,2987560,88368303,4323518260553681225,1361194076.569195,14900,-2240,-1880,nan,0.000000
2,5,6,0,2987560,88368303,4323518260553683846,1361194076.569195,15120,-4016,-2668,nan,0.000000
2,5,6,0,2987560,88368303,4323518260553686467,1361194076.569195,14656,-3868,-2488,nan,0.000000
2,5,6,0,2987560,88368303,4323518260553689088,1361194076.569195,14852,-3576,-3212,nan,0.000000
2,5,7,0,2987560,88368336,4323518260553691709,1361194076.569961,15280,-5168,-3636,nan,0.000000
2,5,7,0,2987560,88368336,4323518260553694330,1361194076.569961,23064,-2524,-268,nan,0.000000
2,5,7,0,2987560,88368336,4323518260553696951,1361194076.569961,10200,-1968,44,nan,0.000000
2,5,7,0,2987560,88368336,4323518260553699572,1361194076.569961,18840,-1792,-664,nan,0.000000
2,5,7,0,2987560,88368336,4323518260553702193,1361194076.569961,14676,-2312,-1752,nan,0.000000
2,5,8,0,2987560,88368367,4323518260553704814,1361194076.571241,13752,-5132,-1440,nan,0.000000
2,5,8,0,2987560,88368367,4323518260553707435,1361194076.571241,14896,-4304,-2280,nan,0.000000
2,5,8,0,2987560,88368367,4323518260553710056,1361194076.571241,14508,-4776,-2608,nan,0.000000
2,5,8,0,2987560,88368367,4323518260553712677,1361194076.571241,14884,-4284,-2480,nan,0.000000
2,5,8,0,2987560,88368367,4323518260553715298,1361194076.571241,19832,-4560,-2636,nan,0.000000
1,5,9,0,3068817,88368400,1798960380022251770,1361194076.571792,13756,-1984,-1132,nan,0.000000
1,5,9,0,3068817,88368400,1798960380022254391,1361194076.571792,18008,-6636,-2104,nan,0.000000
2,5,10,0,3068817,88368431,1798960380022257012,1361194076.573207,13976,-1420,-2496,nan,0.000000
2,5,10,0,3068817,88368431,1798960380022259633,1361194076.573207,15404,-3076,-2664,nan,0.000000
2,5,10,0,3068817,88368431,1798960380022262254,1361194076.573207,15288,-4524,-2968,nan,0.000000
2,5,10,0,3068817,88368431,1798960380022264875,1361194076.573207,15096,-3968,-2680,nan,0.000000
2,5,10,0,3068817,88368431,1798960380022267496,1361194076.573207,15512,-3088,-2608,nan,0.000000
2,5,11,0,3068817,88368464,1798960380022270117,1361194076.573993,16268,-3412,-2476,nan,0.000000
2,5,11,0,3068817,88368464,1798960380022272738,1361194076.573993,15040,-3620,-788,nan,0.000000
2,5,11,0,3068817,88368464,1798960380022275359,1361194076.573993,15080,-5376,1500,nan,0.000000
2,5,11,0,3068817,88368464,1798960380022277980,1361194076.573993,15048,-4136,56,nan,0.000000
2,5,11,0,3068817,88368464,1798960380022280601,1361194076.573993,16408,-3832,-452,nan,0.000000
2,5,12,0,3068817,88368495,1798960380022283222,1361194076.575188,15532,-5132,-776,nan,0.000000
2,5,12,0,3068817,88368495,1798960380022285843,1361194076.575188,15312,-4428,-628,nan,0.000000
2,5,12,0,3068817,88368495,1798960380022288464,1361194076.575188,15580,-4540,-532,nan,0.000000
2,5,12,0,3068817,88368495,1798960380022291085,1361194076.575188,15424,-4484,-340,nan,0.000000
2,5,12,0,3068817,88368495,1798960380022293706,1361194076.575188,15472,-5136,84,nan,0.000000
2,5,13,0,3068817,88368528,1798960380022296327,1361194076.575641,14928,-5984,464,nan,0.000000
2,5,13,0,3068817,88368528,1798960380022298948,1361194076.575641,14604,-6144,796,nan,0.000000
2,5,13,0,3068817,88368528,1798960380022301569,1361194076.575641,15436,-4428,592,nan,0.000000
2,5,13,0,3068817,88368528,1798960380022304190,1361194076.575641,16000,-2696,-1892,nan,0.000000
2,5,13,0,3068817,88368528,1798960380022306811,1361194076.575641,16864,-3036,-1720,nan,0.000000
2,5,14,0,3068817,88368559,1798960380022309432,1361194076.577196,16760,-2708,-3476,nan,0.000000
2,5,14,0,3068817,88368559,1798960380022312053,1361194076.577196,14852,-1112,-2572,nan,0.000000
2,5,14,0,3068817,88368559,1798960380022314674,1361194076.577196,14988,-1788,-3516,nan,0.000000
2,5,14,0,3068817,88368559,1798960380022317295,1361194076.577196,15096,-3320,-3332,nan,0.000000
2,5,14,0,3068817,88368559,1798960380022319916,1361194076.577196,15008,-3044,-3096,nan,0.000000
2,5,15,0,3068817,88368592,1798960380022322537,1361194076.577737,14952,-3348,-3484,nan,0.000000
2,5,15,0,3068817,88368592,1798960380022325158,1361194076.577737,15480,-3756,-3576,nan,0.000000
2,5,15,0,3068817,88368592,1798960380022327779,1361194076.577737,15856,-3164,-4708,nan,0.000000
2,5,15,0,3068817,88368592,1798960380022330400,1361194076.577737,20384,-3616,-3616,nan,0.000000
2,5,15,0,3068817,88368592,1798960380022333021,1361194076.577737,13356,-416,364,nan,0.000000
1,5,0,0,3150074,88368623,644671092748477682,1361194076.579198,15940,-1280,-1848,nan,0.000000
1,5,0,0,3150074,88368623,644671092748480303,1361194076.579198,14480,-2972,-1596,nan,0.000000
2,5,1,0,3150074,88368656,644671092748482924,1361194076.579605,15568,-3104,-1780,nan,0.000000
2,5,1,0,3150074,88368656,644671092748485545,1361194076.579605,15576,-2616,-1844,nan,0.000000
2,5,1,0,3150074,88368656,644671092748488166,1361194076.579605,14468,-3116,-620,nan,0.000000
2,5,1,0,3150074,88368656,644671092748490787,1361194076.579605,21792,1836,-2472,nan,0.000000
2,5,1,0,3150074,88368656,644671092748493408,1361194076.579605,11636,-1452,-40,nan,0.000000
2,5,2,0,3150074,88368687,644671092748496029,1361194076.581395,18672,-1320,-2660,nan,0.000000
2,5,2,0,3150074,88368687,644671092748498650,1361194076.581395,13952,-12,-3688,nan,0.000000
2,5,2,0,3150074,88368687,644671092748501271,1361194076.581395,15752,-916,-1548,nan,0.000000
2,5,2,0,3150074,88368687,644671092748503892,1361194076.581395,15700,-1748,-2064,nan,0.000000
2,5,2,0,3150074,88368687,644671092748506513,1361194076.581395,15732,-2924,-1556,nan,0.000000
2,5,3,0,3150074,88368720,644671092748509134,1361194076.586764,17596,520,740,nan,0.000000
2,5,3,0,3150074,88368720,644671092748511755,1361194076.586764,16108,-3264,-1272,nan,0.000000
2,5,3,0,3150074,88368720,644671092748514376,1361194076.586764,17488,-1376,1124,nan,0.000000
2,5,3,0,3150074,88368720,644671092748516997,1361194076.586764,14384,-1496,40,nan,0.000000
2,5,3,0,3150074,88368720,644671092748519618,1361194076.586764,15260,-1740,1728,nan,0.000000
2,5,4,0,3150074,88368751,644671092748522239,1361194076.591427,16276,204,1372,nan,0.000000
2,5,4,0,3150074,88368751,644671092748524860,1361194076.591427,16992,-404,-1416,nan,0.000000
2,5,4,0,3150074,88368751,644671092748527481,1361194076.591427,16944,2072,-60,nan,0.000000
2,5,4,0,3150074,88368751,644671092748530102,1361194076.591427,15708,3536,-1824,nan,0.000000
2,5,4,0,3150074,88368751,644671092748532723,1361194076.591427,15392,2928,-788,nan,0.000000
2,5,5,0,3150074,88368783,644671092748535344,1361194076.593896,15672,2776,-1348,nan,0.000000
2,5,5,0,3150074,88368783,644671092748537965,1361194076.593896,15504,3732,-1644,nan,0.000000
2,5,5,0,3150074,88368783,644671092748540586,1361194076.593896,15408,4424,-1596,nan,0.000000
2,5,5,0,3150074,88368783,644671092748543207,1361194076.593896,15816,3976,-1788,nan,0.000000
2,5,5,0,3150074,88368783,644671092748545828,1361194076.593896,15128,3960,-716,nan,0.000000
2,5,6,0,3150074,88368815,644671092748548449,1361194076.596367,15580,4088,-668,nan,0.000000
2,5,6,0,3150074,88368815,644671092748551070,1361194076.596367,15964,3924,-924,nan,0.000000
2,5,6,0,3150074,88368815,644671092748553691,1361194076.596367,15500,4568,-1088,nan,0.000000
2,5,6,0,3150074,88368815,644671092748556312,1361194076.596367,15588,4388,-984,nan,0.000000
2,5,6,0,3150074,88368815,644671092748558933,1361194076.596367,15652,4480,-1088,nan,0.000000
1,5,7,0,3231332,88368847,7276783522872714493,1361194076.598391,15472,4344,-1000,nan,0.000000
1,5,7,0,3231332,88368847,7276783522872717114,1361194076.598391,15520,4476,-1080,nan,0.000000
2,5,8,0,3231332,88368879,7276783522872719735,1361194076.600392,15572,4428,-1088,nan,0.000000
2,5,8,0,3231332,88368879,7276783522872722356,1361194076.600392,15484,4404,-1152,nan,0.000000
2,5,8,0,3231332,88368879,7276783522872724977,1361194076.600392,15468,4420,-1176,nan,0.000000
2,5,8,0,3231332,88368879,7276783522872727598,1361194076.600392,15516,4496,-1148,nan,0.000000
2,5,8,0,3231332,88368879,7276783522872730219,1361194076.600392,15584,4512,-1216,nan,0.000000
2,5,9,0,3231332,88368911,7276783522872732840,1361194076.601869,15500,4420,-1304,nan,0.000000
2,5,9,0,3231332,88368911,7276783522872735461,1361194076.601869,15508,4308,-1252,nan,0.000000
2,5,9,0,3231332,88368911,7276783522872738082,1361194076.601869,15544,4356,-1344,nan,0.000000
2,5,9,0,3231332,88368911,7276783522872740703,1361194076.601869,15448,4472,-1428,nan,0.000000
2,5,9,0,3231332,88368911,7276783522872743324,1361194076.601869,15496,4428,-1500,nan,0.000000
2,5,10,0,3231332,88368943,7276783522872745945,1361194076.609614,15624,4184,-1248,nan,0.000000
2,5,10,0,3231332,88368943,7276783522872748566,1361194076.609614,15448,4304,-1268,nan,0.000000
2,5,10,0,3231332,88368943,7276783522872751187,1361194076.609614,15532,4400,-1288,nan,0.000000
2,5,10,0,3231332,88368943,7276783522872753808,1361194076.609614,15548,4584,-1176,nan,0.000000
2,5,10,0,3231332,88368943,7276783522872756429,1361194076.609614,15524,4556,-1448,nan,0.000000
2,5,11,0,3231332,88368975,7276783522872759050,1361194076.614411,15588,4168,-1412,nan,0.000000
2,5,11,0,3231332,88368975,7276783522872761671,1361194076.614411,15520,3840,-1312,nan,0.000000
2,5,11,0,3231332,88368975,7276783522872764292,1361194076.614411,15472,3676,-1416,nan,0.000000
2,5,11,0,3231332,88368975,7276783522872766913,1361194076.614411,15656,3468,-1184,nan,0.000000
2,5,11,0,3231332,88368975,7276783522872769534,1361194076.614411,15964,3044,-1096,nan,0.000000
2,5,12,0,3231332,88369007,7276783522872772155,1361194076.617695,15856,2544,-1236,nan,0.000000
2,5,12,0,3231332,88369007,7276783522872774776,1361194076.617695,15760,1220,184,nan,0.000000
2,5,12,0,3231332,88369007,7276783522872777397,1361194076.617695,16316,-1060,2332,nan,0.000000
2,5,12,0,3231332,88369007,7276783522872780018,1361194076.617695,18104,-1212,1744,nan,0.000000
2,5,12,0,3231332,88369007,7276783522872782639,1361194076.617695,15176,-1196,-624,nan,0.000000
2,5,13,0,3231332,88369039,7276783522872785260,1361194079.029569,16128,-2536,1220,nan,0.000000
2,5,13,0,3231332,88369039,7276783522872787881,1361194079.029569,16376,-3124,340,nan,0.000000
2,5,13,0,3231332,88369039,7276783522872790502,1361194079.029569,15240,-3352,496,nan,0.000000
2,5,13,0,3231332,88369039,7276783522872793123,1361194079.029569,15404,-4192,832,nan,0.000000
2,5,13,0,3231332,88369039,7276783522872795744,1361194079.029569,15072,-4776,1228,nan,0.000000
1,5,14,0,3312589,88448990,6053344722376705028,1361194079.031242,16620,-484,348,nan,0.000000
1,5,14,1,3312589,88448990,6053344722376707649,1361194079.031242,17608,-1852,-6832,nan,0.000000
2,5,15,1,3312589,88449022,6053344722376710270,1361194079.032111,17552,-880,-2276,nan,0.000000
2,5,15,1,3312589,88449022,6053344722376712891,1361194079.032111,14072,1360,-4224,nan,0.000000
2,5,15,1,3312589,88449022,6053344722376715512,1361194079.032111,14468,-724,-4736,nan,0.000000
2,5,15,1,3312589,88449022,6053344722376718133,1361194079.032111,15112,-2676,-3016,nan,0.000000
2,5,15,1,3312589,88449022,6053344722376720754,1361194079.032111,15580,-1856,-3644,nan,0.000000
2,5,0,1,3312589,88449053,6053344722376723375,1361194079.033445,14916,-2704,-3700,nan,0.000000
2,5,0,1,3312589,88449053,6053344722376725996,1361194079.033445,21132,-2740,-2244,nan,0.000000
2,5,0,1,3312589,88449053,6053344722376728617,1361194079.033445,14828,1960,-172,nan,0.000000
2,5,0,1,3312589,88449053,6053344722376731238,1361194079.033445,14496,96,-44,nan,0.000000
2,5,0,1,3312589,88449053,6053344722376733859,1361194079.033445,18848,-292,-1400,nan,0.000000
2,5,1,1,3312589,88449086,6053344722376736480,1361194079.034142,14220,-4252,-812,nan,0.000000
2,5,1,1,3312589,88449086,6053344722376739101,1361194079.034142,15272,-2116,-1544,nan,0.000000
2,5,1,1,3312589,88449086,6053344722376741722,1361194079.034142,15464,-3880,-400,nan,0.000000
2,5,1,1,3312589,88449086,6053344722376744343,1361194079.034142,16876,-676,-1868,nan,0.000000
2,5,1,1,3312589,88449086,6053344722376746964,1361194079.034142,14372,288,-720,nan,0.000000
2,5,2,1,3312589,88449117,6053344722376749585,1361194079.035166,16760,-2880,-3196,nan,0.000000
2,5,2,1,3312589,88449117,6053344722376752206,1361194079.035166,16792,-1084,-3520,nan,0.000000
2,5,2,1,3312589,88449117,6053344722376754827,1361194079.035166,15280,-216,-3868,nan,0.000000
2,5,2,1,3312589,88449117,6053344722376757448,1361194079.035166,15448,-2064,-3004,nan,0.000000
2,5,2,1,3312589,88449117,6053344722376760069,1361194079.035166,15608,-2016,-2976,nan,0.000000
2,5,3,1,3312589,88449150,6053344722376762690,1361194079.035986,15600,-616,-3712,nan,0.000000
2,5,3,1,3312589,88449150,6053344722376765311,1361194079.035986,15368,-1436,-3592,nan,0.000000
2,5,3,1,3312589,88449150,6053344722376767932,1361194079.035986,15892,-1408,-3708,nan,0.000000
2,5,3,1,3312589,88449150,6053344722376770553,1361194079.035986,15920,308,-4232,nan,0.000000
2,5,3,1,3312589,88449150,6053344722376773174,1361194079.035986,18512,-696,-4760,nan,0.000000
2,5,4,1,3312589,88449181,6053344722376775795,1361194081.509527,18028,-372,1200,nan,0.000000
2,5,4,1,3312589,88449181,6053344722376778416,1361194081.509527,12664,-5044,2392,nan,0.000000
2,5,4,1,3312589,88449181,6053344722376781037,1361194081.509527,17332,-1960,-788,nan,0.000000
2,5,4,1,3312589,88449181,6053344722376783658,1361194081.509527,14260,-4496,-216,nan,0.000000
2,5,4,1,3312589,88449181,6053344722376786279,1361194081.509527,14380,-3948,-1008,nan,0.000000
1,5,5,0,3393847,88530251,6343686128640569348,1361194081.511168,14576,-4684,-1304,nan,0.000000
1,5,5,0,3393847,88530251,6343686128640571969,1361194081.511168,17248,-3488,68,nan,0.000000
2,5,6,0,3393847,88530283,6343686128640574590,1361194081.511856,17756,-1656,3268,nan,0.000000
2,5,6,0,3393847,88530283,6343686128640577211,1361194081.511856,15592,-2340,-56,nan,0.000000
2,5,6,0,3393847,88530283,6343686128640579832,1361194081.511856,17220,-2168,1580,nan,0.000000
2,5,6,0,3393847,88530283,6343686128640582453,1361194081.511856,14200,-328,692,nan,0.000000
2,5,6,0,3393847,88530283,6343686128640585074,1361194081.511856,15280,-380,1628,nan,0.000000
2,5,7,0,3393847,88530315,6343686128640587695,1361194081.513149,15140,-756,1640,nan,0.000000
2,5,7,0,3393847,88530315,6343686128640590316,1361194081.513149,15412,460,2748,nan,0.000000
2,5,7,0,3393847,88530315,6343686128640592937,1361194081.513149,16832,-1232,5244,nan,0.000000
2,5,7,0,3393847,88530315,6343686128640595558,1361194081.513149,17196,-1800,5196,nan,0.000000
2,5,7,0,3393847,88530315,6343686128640598179,1361194081.513149,14732,-2456,5888,nan,0.000000
2,5,8,0,3393847,88530347,6343686128640600800,1361194081.513946,14476,-3284,5556,nan,0.000000
2,5,8,0,3393847,88530347,6343686128640603421,1361194081.513946,15084,-1144,6216,nan,0.000000
2,5,8,0,3393847,88530347,6343686128640606042,1361194081.513946,15872,-1892,5952,nan,0.000000
2,5,8,0,3393847,88530347,6343686128640608663,1361194081.513946,15380,-1540,5868,nan,0.000000
2,5,8,0,3393847,88530347,6343686128640611284,1361194081.513946,14668,-1064,5236,nan,0.000000
2,5,9,0,3393847,88530379,6343686128640613905,1361194081.515148,14996,-764,4860,nan,0.000000
2,5,9,0,3393847,88530379,6343686128640616526,1361194081.515148,14140,-788,4712,nan,0.000000
2,5,9,0,3393847,88530379,6343686128640619147,1361194081.515148,15144,-300,2940,nan,0.000000
2,5,9,0,3393847,88530379,6343686128640621768,1361194081.515148,19668,-4436,-4860,nan,0.000000
2,5,9,0,3393847,88530379,6343686128640624389,1361194081.515148,18652,-2960,-3220,nan,0.000000
2,5,10,0,3393847,88530411,6343686128640627010,1361194081.516061,14524,-3532,-2968,nan,0.000000
2,5,10,0,3393847,88530411,6343686128640629631,1361194081.516061,12012,-3272,-2496,nan,0.000000
2,5,10,0,3393847,88530411,6343686128640632252,1361194081.516061,16068,-3092,-2808,nan,0.000000
2,5,10,0,3393847,88530411,6343686128640634873,1361194081.516061,15632,-1292,-1780,nan,0.000000
2,5,10,0,3393847,88530411,6343686128640637494,1361194081.516061,15168,-72,-1684,nan,0.000000
2,5,11,0,3393847,88530443,6343686128640640115,1361194083.989511,15220,-912,-1552,nan,0.000000
2,5,11,0,3393847,88530443,6343686128640642736,1361194083.989511,16844,-1324,-296,nan,0.000000
