type,ID,seq,packetLoss,nodeTimestamp,bsTimestamp,syncTimestamp,systemTime,accelX,accelY,accelZ,cannula,voltage
1,5,2,0,15426703,84267578,1224103963964354811,1361375713.956124,14784,1616,-3856,nan,0.000000
1,5,2,0,15426703,84267578,1224103963964357432,1361375713.956124,15376,1632,-4032,nan,0.000000
2,5,3,0,15426703,84267610,1224103963964360053,1361375713.956364,15868,2088,-2996,nan,0.000000
2,5,3,0,15426703,84267610,1224103963964362674,1361375713.956364,16012,3200,-2244,nan,0.000000
2,5,3,0,15426703,84267610,1224103963964365295,1361375713.956364,14984,2132,-2160,nan,0.000000
2,5,3,0,15426703,84267610,1224103963964367916,1361375713.956364,15480,1776,-2024,nan,0.000000
2,5,3,0,15426703,84267610,1224103963964370537,1361375713.956364,15780,2568,-900,nan,0.000000
2,5,4,0,15426703,84267642,1224103963964373158,1361375713.956779,15832,2808,-480,nan,0.000000
2,5,4,0,15426703,84267642,1224103963964375779,1361375713.956779,15096,3360,80,nan,0.000000
2,5,4,0,15426703,84267642,1224103963964378400,1361375713.956779,15312,3284,556,nan,0.000000
2,5,4,0,15426703,84267642,1224103963964381021,1361375713.956779,16304,3528,620,nan,0.000000
2,5,4,0,15426703,84267642,1224103963964383642,1361375713.956779,17092,5688,1436,nan,0.000000
2,5,5,0,15426703,84267673,1224103963964386263,1361375713.957142,20836,72,-4156,nan,0.000000
2,5,5,0,15426703,84267673,1224103963964388884,1361375713.957142,16436,1608,-3540,nan,0.000000
2,5,5,0,15426703,84267673,1224103963964391505,1361375713.957142,14196,-12,-2008,nan,0.000000
2,5,5,0,15426703,84267673,1224103963964394126,1361375713.957142,14148,2084,-1792,nan,0.000000
2,5,5,0,15426703,84267673,1224103963964396747,1361375713.957142,14804,2276,-1756,nan,0.000000
2,5,6,0,15426703,84267705,1224103963964399368,1361375713.957530,14260,4448,-608,nan,0.000000
2,5,6,0,15426703,84267705,1224103963964401989,1361375713.957530,15316,3088,-348,nan,0.000000
2,5,6,0,15426703,84267705,1224103963964404610,1361375713.957530,15768,4908,-348,nan,0.000000
2,5,6,0,15426703,84267705,1224103963964407231,1361375713.957530,16300,3972,-32,nan,0.000000
2,5,6,0,15426703,84267705,1224103963964409852,1361375713.957530,19544,6300,-284,nan,0.000000
2,5,7,0,15426703,84267737,1224103963964412473,1361375713.957922,19744,2700,-4116,nan,0.000000
2,5,7,0,15426703,84267737,1224103963964415094,1361375713.957922,14908,-3064,-4420,nan,0.000000
2,5,7,0,15426703,84267737,1224103963964417715,1361375713.957922,14920,3424,-1924,nan,0.000000
2,5,7,0,15426703,84267737,1224103963964420336,1361375713.957922,13400,1404,-1640,nan,0.000000
2,5,7,0,15426703,84267737,1224103963964422957,1361375713.957922,14368,1912,-968,nan,0.000000
2,5,8,0,15426703,84267768,1224103963964425578,1361375713.958319,14444,2900,-860,nan,0.000000
2,5,8,0,15426703,84267768,1224103963964428199,1361375713.958319,14132,4040,212,nan,0.000000
2,5,8,0,15426703,84267768,1224103963964430820,1361375713.958319,16524,1960,12,nan,0.000000
2,5,8,0,15426703,84267768,1224103963964433441,1361375713.958319,18780,7328,1112,nan,0.000000
2,5,8,0,15426703,84267768,1224103963964436062,1361375713.958319,22588,2044,-5200,nan,0.000000
1,4,1,0,4388741,84326633,7547905441334795455,1361375713.958693,-120,644,-16460,nan,0.000000
1,4,1,0,4388741,84326633,7547905441334798076,1361375713.958693,-204,672,-16448,nan,0.000000
2,4,2,0,4388741,84326665,7547905441334800697,1361375713.958847,-124,612,-16476,nan,0.000000
2,4,2,0,4388741,84326665,7547905441334803318,1361375713.958847,-188,676,-16476,nan,0.000000
2,4,2,0,4388741,84326665,7547905441334805939,1361375713.958847,-176,644,-16532,nan,0.000000
2,4,2,0,4388741,84326665,7547905441334808560,1361375713.958847,-152,664,-16468,nan,0.000000
2,4,2,0,4388741,84326665,7547905441334811181,1361375713.958847,-176,656,-16500,nan,0.000000
2,4,3,0,4388741,84326697,7547905441334813802,1361375713.959199,-168,648,-16496,nan,0.000000
2,4,3,0,4388741,84326697,7547905441334816423,1361375713.959199,-152,632,-16504,nan,0.000000
2,4,3,0,4388741,84326697,7547905441334819044,1361375713.959199,-124,628,-16484,nan,0.000000
2,4,3,0,4388741,84326697,7547905441334821665,1361375713.959199,-172,612,-16480,nan,0.000000
2,4,3,0,4388741,84326697,7547905441334824286,1361375713.959199,-216,612,-16520,nan,0.000000
2,4,4,0,4388741,84326728,7547905441334826907,1361375713.959580,-180,620,-16480,nan,0.000000
2,4,4,0,4388741,84326728,7547905441334829528,1361375713.959580,-144,676,-16484,nan,0.000000
2,4,4,0,4388741,84326728,7547905441334832149,1361375713.959580,-164,648,-16484,nan,0.000000
2,4,4,0,4388741,84326728,7547905441334834770,1361375713.959580,-188,648,-16436,nan,0.000000
2,4,4,0,4388741,84326728,7547905441334837391,1361375713.959580,-184,616,-16496,nan,0.000000
2,4,5,0,4388741,84326760,7547905441334840012,1361375713.959959,-116,644,-16488,nan,0.000000
2,4,5,0,4388741,84326760,7547905441334842633,1361375713.959959,-132,684,-16488,nan,0.000000
2,4,5,0,4388741,84326760,7547905441334845254,1361375713.959959,-156,592,-16520,nan,0.000000
2,4,5,0,4388741,84326760,7547905441334847875,1361375713.959959,-156,592,-16480,nan,0.000000
2,4,5,0,4388741,84326760,7547905441334850496,1361375713.959959,-140,612,-16488,nan,0.000000
2,4,6,0,4388741,84326792,7547905441334853117,1361375713.960408,-188,640,-16460,nan,0.000000
2,4,6,0,4388741,84326792,7547905441334855738,1361375713.960408,-176,628,-16524,nan,0.000000
2,4,6,0,4388741,84326792,7547905441334858359,1361375713.960408,-176,624,-16516,nan,0.000000
2,4,6,0,4388741,84326792,7547905441334860980,1361375713.960408,-164,664,-16460,nan,0.000000
2,4,6,0,4388741,84326792,7547905441334863601,1361375713.960408,-156,612,-16460,nan,0.000000
2,4,7,0,4388741,84326823,7547905441334866222,1361375713.960838,-144,644,-16460,nan,0.000000
2,4,7,0,4388741,84326823,7547905441334868843,1361375713.960838,-140,644,-16496,nan,0.000000
2,4,7,0,4388741,84326823,7547905441334871464,1361375713.960838,-128,704,-16492,nan,0.000000
2,4,7,0,4388741,84326823,7547905441334874085,1361375713.960838,-168,624,-16464,nan,0.000000
2,4,7,0,4388741,84326823,7547905441334876706,1361375713.960838,-172,656,-16504,nan,0.000000
1,5,9,0,15508024,84348958,-3170314170042702596,1361375713.961244,14552,376,-2800,nan,0.000000
1,5,9,0,15508024,84348958,-3170314170042699975,1361375713.961244,12868,4108,-2408,nan,0.000000
2,5,10,0,15508024,84348990,-3170314170042697354,1361375713.961422,14248,1684,-2432,nan,0.000000
2,5,10,0,15508024,84348990,-3170314170042694733,1361375713.961422,14276,3640,-1116,nan,0.000000
2,5,10,0,15508024,84348990,-3170314170042692112,1361375713.961422,14676,3540,-1064,nan,0.000000
2,5,10,0,15508024,84348990,-3170314170042689491,1361375713.961422,16832,4924,-668,nan,0.000000
2,5,10,0,15508024,84348990,-3170314170042686870,1361375713.961422,19916,6596,-220,nan,0.000000
2,5,11,0,15508024,84349022,-3170314170042684249,1361375713.961797,19184,3704,-4752,nan,0.000000
2,5,11,0,15508024,84349022,-3170314170042681628,1361375713.961797,14980,-1216,-4540,nan,0.000000
2,5,11,0,15508024,84349022,-3170314170042679007,1361375713.961797,14692,6344,-2824,nan,0.000000
2,5,11,0,15508024,84349022,-3170314170042676386,1361375713.961797,14200,464,-2172,nan,0.000000
2,5,11,0,15508024,84349022,-3170314170042673765,1361375713.961797,14856,2840,-836,nan,0.000000
2,5,12,0,15508024,84349053,-3170314170042671144,1361375713.962171,14832,2160,-688,nan,0.000000
2,5,12,0,15508024,84349053,-3170314170042668523,1361375713.962171,14712,4416,196,nan,0.000000
2,5,12,0,15508024,84349053,-3170314170042665902,1361375713.962171,15780,2824,580,nan,0.000000
2,5,12,0,15508024,84349053,-3170314170042663281,1361375713.962171,16512,4692,1112,nan,0.000000
2,5,12,0,15508024,84349053,-3170314170042660660,1361375713.962171,20348,4016,-1876,nan,0.000000
2,5,13,0,15508024,84349085,-3170314170042658039,1361375713.962549,15824,4032,-4324,nan,0.000000
2,5,13,0,15508024,84349085,-3170314170042655418,1361375713.962549,15400,1608,-2264,nan,0.000000
2,5,13,0,15508024,84349085,-3170314170042652797,1361375713.962549,12972,3784,-1292,nan,0.000000
2,5,13,0,15508024,84349085,-3170314170042650176,1361375713.962549,15060,1652,-1704,nan,0.000000
2,5,13,0,15508024,84349085,-3170314170042647555,1361375713.962549,14380,3548,-384,nan,0.000000
2,5,14,0,15508024,84349117,-3170314170042644934,1361375713.962928,15112,3568,84,nan,0.000000
2,5,14,0,15508024,84349117,-3170314170042642313,1361375713.962928,14944,5568,-452,nan,0.000000
2,5,14,0,15508024,84349117,-3170314170042639692,1361375713.962928,16220,3612,20,nan,0.000000
2,5,14,0,15508024,84349117,-3170314170042637071,1361375713.962928,20500,6464,-720,nan,0.000000
2,5,14,0,15508024,84349117,-3170314170042634450,1361375713.962928,20716,-2932,-4288,nan,0.000000
2,5,15,0,15508024,84349148,-3170314170042631829,1361375713.963337,14956,1348,-2340,nan,0.000000
2,5,15,0,15508024,84349148,-3170314170042629208,1361375713.963337,14836,144,-1336,nan,0.000000
2,5,15,0,15508024,84349148,-3170314170042626587,1361375713.963337,13676,2736,-1636,nan,0.000000
2,5,15,0,15508024,84349148,-3170314170042623966,1361375713.963337,14468,2576,-204,nan,0.000000
2,5,15,0,15508024,84349148,-3170314170042621345,1361375713.963337,15172,2576,396,nan,0.000000
1,4,8,0,4478377,84416272,-8016543665608477505,1361375713.963709,-156,652,-16468,nan,0.000000
1,4,8,0,4478377,84416272,-8016543665608474884,1361375713.963709,-176,640,-16580,nan,0.000000
2,4,9,0,4478377,84416304,-8016543665608472263,1361375713.963881,-180,640,-16484,nan,0.000000
2,4,9,0,4478377,84416304,-8016543665608469642,1361375713.963881,-176,708,-16456,nan,0.000000
2,4,9,0,4478377,84416304,-8016543665608467021,1361375713.963881,-196,608,-16492,nan,0.000000
2,4,9,0,4478377,84416304,-8016543665608464400,1361375713.963881,-204,660,-16468,nan,0.000000
2,4,9,0,4478377,84416304,-8016543665608461779,1361375713.963881,-172,672,-16520,nan,0.000000
2,4,10,0,4478377,84416335,-8016543665608459158,1361375713.964258,-168,640,-16476,nan,0.000000
2,4,10,0,4478377,84416335,-8016543665608456537,1361375713.964258,-200,620,-16476,nan,0.000000
2,4,10,0,4478377,84416335,-8016543665608453916,1361375713.964258,-152,636,-16496,nan,0.000000
2,4,10,0,4478377,84416335,-8016543665608451295,1361375713.964258,-196,648,-16472,nan,0.000000
2,4,10,0,4478377,84416335,-8016543665608448674,1361375713.964258,-176,640,-16488,nan,0.000000
2,4,11,0,4478377,84416367,-8016543665608446053,1361375713.964643,-152,656,-16472,nan,0.000000
2,4,11,0,4478377,84416367,-8016543665608443432,1361375713.964643,-160,656,-16476,nan,0.000000
2,4,11,0,4478377,84416367,-8016543665608440811,1361375713.964643,-176,656,-16476,nan,0.000000
2,4,11,0,4478377,84416367,-8016543665608438190,1361375713.964643,-176,636,-16496,nan,0.000000
2,4,11,0,4478377,84416367,-8016543665608435569,1361375713.964643,-172,628,-16520,nan,0.000000
2,4,12,0,4478377,84416399,-8016543665608432948,1361375713.965101,-224,640,-16524,nan,0.000000
2,4,12,0,4478377,84416399,-8016543665608430327,1361375713.965101,-160,624,-16488,nan,0.000000
2,4,12,0,4478377,84416399,-8016543665608427706,1361375713.965101,-164,644,-16492,nan,0.000000
2,4,12,0,4478377,84416399,-8016543665608425085,1361375713.965101,-216,672,-16464,nan,0.000000
2,4,12,0,4478377,84416399,-8016543665608422464,1361375713.965101,-168,596,-16472,nan,0.000000
2,4,13,0,4478377,84416430,-8016543665608419843,1361375713.965348,-156,608,-16484,nan,0.000000
2,4,13,0,4478377,84416430,-8016543665608417222,1361375713.965348,-176,640,-16532,nan,0.000000
2,4,13,0,4478377,84416430,-8016543665608414601,1361375713.965348,-188,648,-16536,nan,0.000000
2,4,13,0,4478377,84416430,-8016543665608411980,1361375713.965348,-180,616,-16504,nan,0.000000
2,4,13,0,4478377,84416430,-8016543665608409359,1361375713.965348,-160,640,-16508,nan,0.000000
2,4,14,0,4478377,84416462,-8016543665608406738,1361375713.965587,-200,612,-16528,nan,0.000000
2,4,14,0,4478377,84416462,-8016543665608404117,1361375713.965587,-188,608,-16488,nan,0.000000
2,4,14,0,4478377,84416462,-8016543665608401496,1361375713.965587,-180,632,-16496,nan,0.000000
2,4,14,0,4478377,84416462,-8016543665608398875,1361375713.965587,-172,656,-16520,nan,0.000000
2,4,14,0,4478377,84416462,-8016543665608396254,1361375713.965587,-148,684,-16488,nan,0.000000
1,5,0,0,15589345,84430264,-3964698188174467850,1361375713.965822,16652,448,1288,nan,0.000000
1,5,0,1,15589345,84430264,-3964698188174465229,1361375713.965822,19008,5392,2072,nan,0.000000
2,5,1,1,15589345,84430296,-3964698188174462608,1361375713.965935,19296,932,-1860,nan,0.000000
2,5,1,1,15589345,84430296,-3964698188174459987,1361375713.965935,14688,4524,-3092,nan,0.000000
2,5,1,1,15589345,84430296,-3964698188174457366,1361375713.965935,15196,968,-2120,nan,0.000000
2,5,1,1,15589345,84430296,-3964698188174454745,1361375713.965935,13556,3792,-1108,nan,0.000000
2,5,1,1,15589345,84430296,-3964698188174452124,1361375713.965935,14604,2736,-1856,nan,0.000000
2,5,2,1,15589345,84430327,-3964698188174449503,1361375713.966208,14960,4056,-832,nan,0.000000
2,5,2,1,15589345,84430327,-3964698188174446882,1361375713.966208,14888,4272,-456,nan,0.000000
2,5,2,1,15589345,84430327,-3964698188174444261,1361375713.966208,15392,4460,-620,nan,0.000000
2,5,2,1,15589345,84430327,-3964698188174441640,1361375713.966208,16124,5652,1200,nan,0.000000
2,5,2,1,15589345,84430327,-3964698188174439019,1361375713.966208,19748,6620,-848,nan,0.000000
2,5,3,1,15589345,84430359,-3964698188174436398,1361375713.966443,16824,-128,-3832,nan,0.000000
2,5,3,1,15589345,84430359,-3964698188174433777,1361375713.966443,15024,4164,-1536,nan,0.000000
2,5,3,1,15589345,84430359,-3964698188174431156,1361375713.966443,16612,3096,-692,nan,0.000000
2,5,3,1,15589345,84430359,-3964698188174428535,1361375713.966443,14444,2432,-420,nan,0.000000
2,5,3,1,15589345,84430359,-3964698188174425914,1361375713.966443,16052,1500,-1184,nan,0.000000
2,5,4,1,15589345,84430391,-3964698188174423293,1361375713.966676,15464,4880,2240,nan,0.000000
2,5,4,1,15589345,84430391,-3964698188174420672,1361375713.966676,14860,3712,368,nan,0.000000
2,5,4,1,15589345,84430391,-3964698188174418051,1361375713.966676,16032,4108,1768,nan,0.000000
2,5,4,1,15589345,84430391,-3964698188174415430,1361375713.966676,18912,6728,160,nan,0.000000
2,5,4,1,15589345,84430391,-3964698188174412809,1361375713.966676,18400,1624,-2396,nan,0.000000
2,5,5,1,15589345,84430422,-3964698188174410188,1361375713.966909,13724,3036,-1964,nan,0.000000
2,5,5,1,15589345,84430422,-3964698188174407567,1361375713.966909,17568,2460,-2744,nan,0.000000
2,5,5,1,15589345,84430422,-3964698188174404946,1361375713.966909,14380,3132,-2360,nan,0.000000
2,5,5,1,15589345,84430422,-3964698188174402325,1361375713.966909,15512,1800,-1756,nan,0.000000
2,5,5,1,15589345,84430422,-3964698188174399704,1361375713.966909,15776,2368,-1960,nan,0.000000
2,5,6,1,15589345,84430454,-3964698188174397083,1361375715.839174,15768,3140,-2328,nan,0.000000
2,5,6,1,15589345,84430454,-3964698188174394462,1361375715.839174,15568,3432,-2964,nan,0.000000
2,5,6,1,15589345,84430454,-3964698188174391841,1361375715.839174,16712,3120,-1556,nan,0.000000
2,5,6,1,15589345,84430454,-3964698188174389220,1361375715.839174,16696,360,-1128,nan,0.000000
2,5,6,1,15589345,84430454,-3964698188174386599,1361375715.839174,16340,1324,288,nan,0.000000
1,4,15,0,4568013,84505913,-7440122496528977729,1361375715.840803,-180,640,-16512,nan,0.000000
1,4,15,0,4568013,84505913,-7440122496528975108,1361375715.840803,-188,624,-16504,nan,0.000000
2,4,0,0,4568013,84505945,-7440122496528972487,1361375715.841277,-132,608,-16480,nan,0.000000
2,4,0,0,4568013,84505945,-7440122496528969866,1361375715.841277,-152,648,-16524,nan,0.000000
2,4,0,0,4568013,84505945,-7440122496528967245,1361375715.841277,-232,656,-16496,nan,0.000000
2,4,0,0,4568013,84505945,-7440122496528964624,1361375715.841277,-160,608,-16504,nan,0.000000
2,4,0,0,4568013,84505945,-7440122496528962003,1361375715.841277,-152,616,-16456,nan,0.000000
2,4,1,0,4568013,84505977,-7440122496528959382,1361375715.842864,-128,668,-16496,nan,0.000000
2,4,1,0,4568013,84505977,-7440122496528956761,1361375715.842864,-184,648,-16512,nan,0.000000
2,4,1,0,4568013,84505977,-7440122496528954140,1361375715.842864,-184,616,-16420,nan,0.000000
2,4,1,0,4568013,84505977,-7440122496528951519,1361375715.842864,-152,640,-16520,nan,0.000000
2,4,1,0,4568013,84505977,-7440122496528948898,1361375715.842864,-156,620,-16488,nan,0.000000
2,4,2,0,4568013,84506009,-7440122496528946277,1361375715.843497,-164,580,-16476,nan,0.000000
2,4,2,0,4568013,84506009,-7440122496528943656,1361375715.843497,-176,640,-16504,nan,0.000000
2,4,2,0,4568013,84506009,-7440122496528941035,1361375715.843497,-120,632,-16488,nan,0.000000
2,4,2,0,4568013,84506009,-7440122496528938414,1361375715.843497,-204,672,-16504,nan,0.000000
2,4,2,0,4568013,84506009,-7440122496528935793,1361375715.843497,-140,608,-16496,nan,0.000000
2,4,3,0,4568013,84506041,-7440122496528933172,1361375715.844800,-168,568,-16500,nan,0.000000
2,4,3,0,4568013,84506041,-7440122496528930551,1361375715.844800,-152,644,-16488,nan,0.000000
2,4,3,0,4568013,84506041,-7440122496528927930,1361375715.844800,-156,640,-16468,nan,0.000000
2,4,3,0,4568013,84506041,-7440122496528925309,1361375715.844800,-156,636,-16512,nan,0.000000
2,4,3,0,4568013,84506041,-7440122496528922688,1361375715.844800,-180,640,-16496,nan,0.000000
2,4,4,0,4568013,84506073,-7440122496528920067,1361375715.845414,-164,632,-16476,nan,0.000000
2,4,4,0,4568013,84506073,-7440122496528917446,1361375715.845414,-164,668,-16500,nan,0.000000
2,4,4,0,4568013,84506073,-7440122496528914825,1361375715.845414,-172,652,-16500,nan,0.000000
2,4,4,0,4568013,84506073,-7440122496528912204,1361375715.845414,-164,668,-16496,nan,0.000000
2,4,4,0,4568013,84506073,-7440122496528909583,1361375715.845414,-144,676,-16468,nan,0.000000
2,4,5,0,4568013,84506105,-7440122496528906962,1361375716.012836,-196,680,-16500,nan,0.000000
2,4,5,0,4568013,84506105,-7440122496528904341,1361375716.012836,-172,608,-16488,nan,0.000000
2,4,5,0,4568013,84506105,-7440122496528901720,1361375716.012836,-196,636,-16528,nan,0.000000
2,4,5,0,4568013,84506105,-7440122496528899099,1361375716.012836,-184,628,-16488,nan,0.000000
2,4,5,0,4568013,84506105,-7440122496528896478,1361375716.012836,-164,668,-16492,nan,0.000000
1,5,7,0,15670666,84511556,7851014458951133430,1361375716.013526,15488,1520,128,nan,0.000000
1,5,7,0,15670666,84511556,7851014458951136051,1361375716.013526,16468,1208,972,nan,0.000000
2,5,8,0,15670666,84511588,7851014458951138672,1361375716.014779,15012,1844,1648,nan,0.000000
2,5,8,0,15670666,84511588,7851014458951141293,1361375716.014779,15348,512,1548,nan,0.000000
2,5,8,0,15670666,84511588,7851014458951143914,1361375716.014779,16072,432,2192,nan,0.000000
2,5,8,0,15670666,84511588,7851014458951146535,1361375716.014779,16120,732,2244,nan,0.000000
2,5,8,0,15670666,84511588,7851014458951149156,1361375716.014779,15648,436,2852,nan,0.000000
2,5,9,0,15670666,84511620,7851014458951151777,1361375716.015446,17880,1228,2736,nan,0.000000
2,5,9,0,15670666,84511620,7851014458951154398,1361375716.015446,18928,-212,-2736,nan,0.000000
2,5,9,0,15670666,84511620,7851014458951157019,1361375716.015446,14828,1996,-1064,nan,0.000000
2,5,9,0,15670666,84511620,7851014458951159640,1361375716.015446,14756,180,-5872,nan,0.000000
2,5,9,0,15670666,84511620,7851014458951162261,1361375716.015446,15688,3344,-3324,nan,0.000000
2,5,10,0,15670666,84511652,7851014458951164882,1361375716.016953,15252,2320,-2896,nan,0.000000
2,5,10,0,15670666,84511652,7851014458951167503,1361375716.016953,15924,2632,-2132,nan,0.000000
2,5,10,0,15670666,84511652,7851014458951170124,1361375716.016953,15576,3448,-1744,nan,0.000000
2,5,10,0,15670666,84511652,7851014458951172745,1361375716.016953,15660,4144,-836,nan,0.000000
2,5,10,0,15670666,84511652,7851014458951175366,1361375716.016953,14632,4872,-624,nan,0.000000
2,5,11,0,15670666,84511684,7851014458951177987,1361375716.018012,14316,6516,-104,nan,0.000000
2,5,11,0,15670666,84511684,7851014458951180608,1361375716.018012,16196,4868,528,nan,0.000000
2,5,11,0,15670666,84511684,7851014458951183229,1361375716.018012,17764,5436,1892,nan,0.000000
2,5,11,0,15670666,84511684,7851014458951185850,1361375716.018012,21312,1708,-3068,nan,0.000000
2,5,11,0,15670666,84511684,7851014458951188471,1361375716.018012,15700,-1488,-4176,nan,0.000000
2,5,12,0,15670666,84511716,7851014458951191092,1361375716.018781,14476,4536,-1476,nan,0.000000
2,5,12,0,15670666,84511716,7851014458951193713,1361375716.018781,14528,1260,-688,nan,0.000000
2,5,12,0,15670666,84511716,7851014458951196334,1361375716.018781,14780,2348,312,nan,0.000000
2,5,12,0,15670666,84511716,7851014458951198955,1361375716.018781,13740,3784,852,nan,0.000000
2,5,12,0,15670666,84511716,7851014458951201576,1361375716.018781,14796,4016,1452,nan,0.000000
2,5,13,0,15670666,84511747,7851014458951204197,1361375718.495210,15864,3532,1144,nan,0.000000
2,5,13,0,15670666,84511747,7851014458951206818,1361375718.495210,17256,4568,3648,nan,0.000000
2,5,13,0,15670666,84511747,7851014458951209439,1361375718.495210,21008,3264,80,nan,0.000000
2,5,13,0,15670666,84511747,7851014458951212060,1361375718.495210,17832,4168,-4272,nan,0.000000
2,5,13,0,15670666,84511747,7851014458951214681,1361375718.495210,13952,1316,-2440,nan,0.000000
1,5,14,0,15751987,84592879,4615864237376632836,1361375718.496432,13688,2244,-1252,nan,0.000000
1,5,14,0,15751987,84592879,4615864237376635457,1361375718.496432,14628,1804,-868,nan,0.000000
2,5,15,0,15751987,84592911,4615864237376638078,1361375718.497041,14880,3720,-708,nan,0.000000
2,5,15,0,15751987,84592911,4615864237376640699,1361375718.497041,15084,4228,464,nan,0.000000
2,5,15,0,15751987,84592911,4615864237376643320,1361375718.497041,16036,5328,-876,nan,0.000000
2,5,15,0,15751987,84592911,4615864237376645941,1361375718.497041,18768,6512,776,nan,0.000000
2,5,15,0,15751987,84592911,4615864237376648562,1361375718.497041,20816,2344,-4244,nan,0.000000
2,5,0,0,15751987,84592942,4615864237376651183,1361375718.497927,16880,-4668,-1040,nan,0.000000
2,5,0,0,15751987,84592942,4615864237376653804,1361375718.497927,14936,4792,-720,nan,0.000000
2,5,0,0,15751987,84592942,4615864237376656425,1361375718.497927,13192,-196,-48,nan,0.000000
2,5,0,0,15751987,84592942,4615864237376659046,1361375718.497927,14124,3180,988,nan,0.000000
2,5,0,0,15751987,84592942,4615864237376661667,1361375718.497927,14336,2744,1608,nan,0.000000
2,5,1,0,15751987,84592975,4615864237376664288,1361375718.498745,14268,4224,2252,nan,0.000000
2,5,1,0,15751987,84592975,4615864237376666909,1361375718.498745,16212,3464,2232,nan,0.000000
2,5,1,0,15751987,84592975,4615864237376669530,1361375718.498745,16664,6620,4000,nan,0.000000
2,5,1,0,15751987,84592975,4615864237376672151,1361375718.498745,23280,-56,-688,nan,0.000000
2,5,1,0,15751987,84592975,4615864237376674772,1361375718.498745,16464,2748,-2400,nan,0.000000
2,5,2,0,15751987,84593007,4615864237376677393,1361375718.499410,15440,316,-1024,nan,0.000000
2,5,2,0,15751987,84593007,4615864237376680014,1361375718.499410,13860,1168,-976,nan,0.000000
2,5,2,0,15751987,84593007,4615864237376682635,1361375718.499410,14448,2800,-1084,nan,0.000000
2,5,2,0,15751987,84593007,4615864237376685256,1361375718.499410,15172,3820,-304,nan,0.000000
2,5,2,0,15751987,84593007,4615864237376687877,1361375718.499410,14852,5328,784,nan,0.000000
2,5,3,0,15751987,84593039,4615864237376690498,1361375718.499942,14600,4248,-100,nan,0.000000
2,5,3,0,15751987,84593039,4615864237376693119,1361375718.499942,15328,4564,772,nan,0.000000
2,5,3,0,15751987,84593039,4615864237376695740,1361375718.499942,15464,4908,1752,nan,0.000000
2,5,3,0,15751987,84593039,4615864237376698361,1361375718.499942,22196,3592,-1128,nan,0.000000
2,5,3,0,15751987,84593039,4615864237376700982,1361375718.499942,18340,-504,-3096,nan,0.000000
2,5,4,0,15751987,84593070,4615864237376703603,1361375718.575022,13596,3612,-412,nan,0.000000
2,5,4,0,15751987,84593070,4615864237376706224,1361375718.575022,14964,376,-744,nan,0.000000
2,5,4,0,15751987,84593070,4615864237376708845,1361375718.575022,14588,2728,52,nan,0.000000
2,5,4,0,15751987,84593070,4615864237376711466,1361375718.575022,14716,3584,240,nan,0.000000
2,5,4,0,15751987,84593070,4615864237376714087,1361375718.575022,14800,4184,1048,nan,0.000000
1,4,6,0,4657650,84595557,-7440122496260535105,1361375718.576740,-144,636,-16492,nan,0.000000
1,4,6,0,4657650,84595557,-7440122496260532484,1361375718.576740,-252,672,-16476,nan,0.000000
2,4,7,0,4657650,84595589,-7440122496260529863,1361375718.576901,-184,680,-16500,nan,0.000000
2,4,7,0,4657650,84595589,-7440122496260527242,1361375718.576901,-176,628,-16516,nan,0.000000
2,4,7,0,4657650,84595589,-7440122496260524621,1361375718.576901,-220,624,-16480,nan,0.000000
2,4,7,0,4657650,84595589,-7440122496260522000,1361375718.576901,-180,620,-16512,nan,0.000000
2,4,7,0,4657650,84595589,-7440122496260519379,1361375718.576901,-176,636,-16468,nan,0.000000
2,4,8,0,4657650,84595621,-7440122496260516758,1361375718.579014,-164,652,-16528,nan,0.000000
2,4,8,0,4657650,84595621,-7440122496260514137,1361375718.579014,-184,656,-16448,nan,0.000000
2,4,8,0,4657650,84595621,-7440122496260511516,1361375718.579014,-168,652,-16504,nan,0.000000
2,4,8,0,4657650,84595621,-7440122496260508895,1361375718.579014,-196,648,-16512,nan,0.000000
2,4,8,0,4657650,84595621,-7440122496260506274,1361375718.579014,-144,640,-16492,nan,0.000000
2,4,9,0,4657650,84595653,-7440122496260503653,1361375718.579346,-176,696,-16508,nan,0.000000
2,4,9,0,4657650,84595653,-7440122496260501032,1361375718.579346,-196,608,-16496,nan,0.000000
2,4,9,0,4657650,84595653,-7440122496260498411,1361375718.579346,-172,636,-16492,nan,0.000000
2,4,9,0,4657650,84595653,-7440122496260495790,1361375718.579346,-192,588,-16476,nan,0.000000
2,4,9,0,4657650,84595653,-7440122496260493169,1361375718.579346,-192,624,-16492,nan,0.000000
2,4,10,0,4657650,84595685,-7440122496260490548,1361375718.580866,-200,656,-16508,nan,0.000000
2,4,10,0,4657650,84595685,-7440122496260487927,1361375718.580866,-108,664,-16480,nan,0.000000
2,4,10,0,4657650,84595685,-7440122496260485306,1361375718.580866,-188,632,-16476,nan,0.000000
2,4,10,0,4657650,84595685,-7440122496260482685,1361375718.580866,-164,640,-16496,nan,0.000000
2,4,10,0,4657650,84595685,-7440122496260480064,1361375718.580866,-180,620,-16504,nan,0.000000
2,4,11,0,4657650,84595717,-7440122496260477443,1361375718.581142,-136,700,-16500,nan,0.000000
2,4,11,0,4657650,84595717,-7440122496260474822,1361375718.581142,-220,644,-16492,nan,0.000000
2,4,11,0,4657650,84595717,-7440122496260472201,1361375718.581142,-196,660,-16468,nan,0.000000
2,4,11,0,4657650,84595717,-7440122496260469580,1361375718.581142,-160,604,-16520,nan,0.000000
2,4,11,0,4657650,84595717,-7440122496260466959,1361375718.581142,-184,676,-16524,nan,0.000000
2,4,12,0,4657650,84595749,-7440122496260464338,1361375720.975057,-176,664,-16440,nan,0.000000
2,4,12,0,4657650,84595749,-7440122496260461717,1361375720.975057,-168,636,-16500,nan,0.000000
2,4,12,0,4657650,84595749,-7440122496260459096,1361375720.975057,-140,668,-16492,nan,0.000000
2,4,12,0,4657650,84595749,-7440122496260456475,1361375720.975057,-212,648,-16504,nan,0.000000
2,4,12,0,4657650,84595749,-7440122496260453854,1361375720.975057,-184,656,-16536,nan,0.000000
1,5,5,0,15833308,84674203,1800727373658350846,1361375720.977000,15740,3320,1512,nan,0.000000
1,5,5,0,15833308,84674203,1800727373658353467,1361375720.977000,16120,4696,2012,nan,0.000000
2,5,6,0,15833308,84674235,1800727373658356088,1361375720.977789,21060,3100,960,nan,0.000000
2,5,6,0,15833308,84674235,1800727373658358709,1361375720.977789,20272,1276,-3472,nan,0.000000
2,5,6,0,15833308,84674235,1800727373658361330,1361375720.977789,13172,2848,-1648,nan,0.000000
2,5,6,0,15833308,84674235,1800727373658363951,1361375720.977789,15548,-24,-2548,nan,0.000000
2,5,6,0,15833308,84674235,1800727373658366572,1361375720.977789,13956,3592,-988,nan,0.000000
2,5,7,0,15833308,84674267,1800727373658369193,1361375720.978806,14852,3008,-1448,nan,0.000000
2,5,7,0,15833308,84674267,1800727373658371814,1361375720.978806,15092,3712,-344,nan,0.000000
2,5,7,0,15833308,84674267,1800727373658374435,1361375720.978806,14804,3564,480,nan,0.000000
2,5,7,0,15833308,84674267,1800727373658377056,1361375720.978806,15356,3824,-392,nan,0.000000
2,5,7,0,15833308,84674267,1800727373658379677,1361375720.978806,16004,5348,888,nan,0.000000
2,5,8,0,15833308,84674299,1800727373658382298,1361375720.979808,16036,4240,1696,nan,0.000000
2,5,8,0,15833308,84674299,1800727373658384919,1361375720.979808,22324,4740,-940,nan,0.000000
2,5,8,0,15833308,84674299,1800727373658387540,1361375720.979808,16528,360,-2876,nan,0.000000
2,5,8,0,15833308,84674299,1800727373658390161,1361375720.979808,13700,3316,-456,nan,0.000000
2,5,8,0,15833308,84674299,1800727373658392782,1361375720.979808,15428,2224,-300,nan,0.000000
2,5,9,0,15833308,84674331,1800727373658395403,1361375720.980736,14264,2500,264,nan,0.000000
2,5,9,0,15833308,84674331,1800727373658398024,1361375720.980736,15028,3344,892,nan,0.000000
2,5,9,0,15833308,84674331,1800727373658400645,1361375720.980736,15084,3388,1364,nan,0.000000
2,5,9,0,15833308,84674331,1800727373658403266,1361375720.980736,14720,4384,2240,nan,0.000000
2,5,9,0,15833308,84674331,1800727373658405887,1361375720.980736,14840,3840,1860,nan,0.000000
2,5,10,0,15833308,84674363,1800727373658408508,1361375720.981537,16024,2992,2092,nan,0.000000
2,5,10,0,15833308,84674363,1800727373658411129,1361375720.981537,16000,5304,3636,nan,0.000000
2,5,10,0,15833308,84674363,1800727373658413750,1361375720.981537,22580,1412,84,nan,0.000000
2,5,10,0,15833308,84674363,1800727373658416371,1361375720.981537,18092,3664,-1996,nan,0.000000
2,5,10,0,15833308,84674363,1800727373658418992,1361375720.981537,12072,1484,-1620,nan,0.000000
2,5,11,0,15833308,84674395,1800727373658421613,1361375721.310930,16164,872,-1620,nan,0.000000
2,5,11,0,15833308,84674395,1800727373658424234,1361375721.310930,14688,3552,-836,nan,0.000000
2,5,11,0,15833308,84674395,1800727373658426855,1361375721.310930,15536,2392,-656,nan,0.000000
2,5,11,0,15833308,84674395,1800727373658429476,1361375721.310930,16108,3384,-428,nan,0.000000
2,5,11,0,15833308,84674395,1800727373658432097,1361375721.310930,15292,3684,-160,nan,0.000000
1,4,13,0,4747287,84685198,-8304782838322968385,1361375721.312728,-176,660,-16444,nan,0.000000
1,4,13,0,4747287,84685198,-8304782838322965764,1361375721.312728,-176,644,-16448,nan,0.000000
2,4,14,0,4747287,84685230,-8304782838322963143,1361375721.312992,-176,628,-16488,nan,0.000000
2,4,14,0,4747287,84685230,-8304782838322960522,1361375721.312992,-168,644,-16460,nan,0.000000
2,4,14,0,4747287,84685230,-8304782838322957901,1361375721.312992,-232,680,-16464,nan,0.000000
2,4,14,0,4747287,84685230,-8304782838322955280,1361375721.312992,-136,668,-16472,nan,0.000000
2,4,14,0,4747287,84685230,-8304782838322952659,1361375721.312992,-160,648,-16484,nan,0.000000
2,4,15,0,4747287,84685262,-8304782838322950038,1361375721.314710,-152,656,-16500,nan,0.000000
2,4,15,0,4747287,84685262,-8304782838322947417,1361375721.314710,-208,696,-16488,nan,0.000000
2,4,15,0,4747287,84685262,-8304782838322944796,1361375721.314710,-168,636,-16448,nan,0.000000
2,4,15,0,4747287,84685262,-8304782838322942175,1361375721.314710,-184,628,-16480,nan,0.000000
2,4,15,0,4747287,84685262,-8304782838322939554,1361375721.314710,-156,664,-16492,nan,0.000000
2,4,0,0,4747287,84685294,-8304782838322936933,1361375721.315202,-156,676,-16496,nan,0.000000
2,4,0,0,4747287,84685294,-8304782838322934312,1361375721.315202,-188,592,-16456,nan,0.000000
2,4,0,0,4747287,84685294,-8304782838322931691,1361375721.315202,-168,652,-16468,nan,0.000000
2,4,0,0,4747287,84685294,-8304782838322929070,1361375721.315202,-176,616,-16476,nan,0.000000
2,4,0,0,4747287,84685294,-8304782838322926449,1361375721.315202,-168,620,-16468,nan,0.000000
2,4,1,0,4747287,84685326,-8304782838322923828,1361375721.316653,-148,644,-16504,nan,0.000000
2,4,1,0,4747287,84685326,-8304782838322921207,1361375721.316653,-184,656,-16464,nan,0.000000
2,4,1,0,4747287,84685326,-8304782838322918586,1361375721.316653,-180,624,-16492,nan,0.000000
2,4,1,0,4747287,84685326,-8304782838322915965,1361375721.316653,-152,644,-16484,nan,0.000000
2,4,1,0,4747287,84685326,-8304782838322913344,1361375721.316653,-152,636,-16480,nan,0.000000
2,4,2,0,4747287,84685358,-8304782838322910723,1361375721.317018,-168,620,-16480,nan,0.000000
2,4,2,0,4747287,84685358,-8304782838322908102,1361375721.317018,-140,628,-16508,nan,0.000000
2,4,2,0,4747287,84685358,-8304782838322905481,1361375721.317018,-180,620,-16496,nan,0.000000
2,4,2,0,4747287,84685358,-8304782838322902860,1361375721.317018,-188,644,-16496,nan,0.000000
2,4,2,0,4747287,84685358,-8304782838322900239,1361375721.317018,-148,656,-16496,nan,0.000000
2,4,3,0,4747287,84685390,-8304782838322897618,1361375723.456643,-152,628,-16536,nan,0.000000
2,4,3,0,4747287,84685390,-8304782838322894997,1361375723.456643,-196,664,-16484,nan,0.000000
2,4,3,0,4747287,84685390,-8304782838322892376,1361375723.456643,-168,672,-16504,nan,0.000000
2,4,3,0,4747287,84685390,-8304782838322889755,1361375723.456643,-156,636,-16456,nan,0.000000
2,4,3,0,4747287,84685390,-8304782838322887134,1361375723.456643,-132,676,-16468,nan,0.000000
1,5,12,0,15914629,84755528,-4828738352394425095,1361375723.458623,14784,5096,-736,nan,0.000000
1,5,12,0,15914629,84755528,-4828738352394422474,1361375723.458623,14012,5900,-592,nan,0.000000
2,5,13,0,15914629,84755560,-4828738352394419853,1361375723.459167,19060,4192,220,nan,0.000000
2,5,13,0,15914629,84755560,-4828738352394417232,1361375723.459167,19072,2616,-556,nan,0.000000
2,5,13,0,15914629,84755560,-4828738352394414611,1361375723.459167,14444,2472,780,nan,0.000000
2,5,13,0,15914629,84755560,-4828738352394411990,1361375723.459167,15488,1496,860,nan,0.000000
2,5,13,0,15914629,84755560,-4828738352394409369,1361375723.459167,16004,1720,224,nan,0.000000
2,5,14,0,15914629,84755591,-4828738352394406748,1361375723.460582,15544,2272,728,nan,0.000000
2,5,14,0,15914629,84755591,-4828738352394404127,1361375723.460582,15956,2504,500,nan,0.000000
2,5,14,0,15914629,84755591,-4828738352394401506,1361375723.460582,15736,2456,340,nan,0.000000
2,5,14,0,15914629,84755591,-4828738352394398885,1361375723.460582,16096,2532,404,nan,0.000000
2,5,14,0,15914629,84755591,-4828738352394396264,1361375723.460582,15896,2696,284,nan,0.000000
2,5,15,0,15914629,84755623,-4828738352394393643,1361375723.461237,15940,2812,260,nan,0.000000
2,5,15,0,15914629,84755623,-4828738352394391022,1361375723.461237,15852,2880,180,nan,0.000000
2,5,15,0,15914629,84755623,-4828738352394388401,1361375723.461237,15728,2812,196,nan,0.000000
2,5,15,0,15914629,84755623,-4828738352394385780,1361375723.461237,15708,2676,400,nan,0.000000
2,5,15,0,15914629,84755623,-4828738352394383159,1361375723.461237,16024,2720,432,nan,0.000000
2,5,0,0,15914629,84755655,-4828738352394380538,1361375723.462606,15968,2948,900,nan,0.000000
2,5,0,0,15914629,84755655,-4828738352394377917,1361375723.462606,16480,3264,872,nan,0.000000
2,5,0,0,15914629,84755655,-4828738352394375296,1361375723.462606,15840,3812,1216,nan,0.000000
2,5,0,0,15914629,84755655,-4828738352394372675,1361375723.462606,15040,2012,1416,nan,0.000000
2,5,0,0,15914629,84755655,-4828738352394370054,1361375723.462606,16236,2680,1656,nan,0.000000
2,5,1,0,15914629,84755687,-4828738352394367433,1361375723.463110,15984,2992,1476,nan,0.000000
2,5,1,0,15914629,84755687,-4828738352394364812,1361375723.463110,16308,3096,1552,nan,0.000000
2,5,1,0,15914629,84755687,-4828738352394362191,1361375723.463110,15780,2180,1744,nan,0.000000
2,5,1,0,15914629,84755687,-4828738352394359570,1361375723.463110,15560,1888,852,nan,0.000000
2,5,1,0,15914629,84755687,-4828738352394356949,1361375723.463110,15536,2168,-244,nan,0.000000
2,5,2,0,15914629,84755719,-4828738352394354328,1361375724.046697,16504,3524,-1492,nan,0.000000
2,5,2,0,15914629,84755719,-4828738352394351707,1361375724.046697,15632,3208,-1224,nan,0.000000
2,5,2,0,15914629,84755719,-4828738352394349086,1361375724.046697,15212,3536,-868,nan,0.000000
2,5,2,0,15914629,84755719,-4828738352394346465,1361375724.046697,15524,3788,-420,nan,0.000000
2,5,2,0,15914629,84755719,-4828738352394343844,1361375724.046697,15676,2784,-224,nan,0.000000
1,4,4,0,4836923,84774840,-7151830547860330305,1361375724.048578,-212,668,-16516,nan,0.000000
1,4,4,0,4836923,84774840,-7151830547860327684,1361375724.048578,-172,648,-16488,nan,0.000000
2,4,5,0,4836923,84774872,-7151830547860325063,1361375724.048945,-176,672,-16492,nan,0.000000
2,4,5,0,4836923,84774872,-7151830547860322442,1361375724.048945,-212,664,-16440,nan,0.000000
2,4,5,0,4836923,84774872,-7151830547860319821,1361375724.048945,-160,604,-16532,nan,0.000000
2,4,5,0,4836923,84774872,-7151830547860317200,1361375724.048945,-224,632,-16508,nan,0.000000
2,4,5,0,4836923,84774872,-7151830547860314579,1361375724.048945,-148,636,-16440,nan,0.000000
2,4,6,0,4836923,84774903,-7151830547860311958,1361375724.050546,-136,652,-16528,nan,0.000000
2,4,6,0,4836923,84774903,-7151830547860309337,1361375724.050546,-168,648,-16500,nan,0.000000
2,4,6,0,4836923,84774903,-7151830547860306716,1361375724.050546,-212,640,-16488,nan,0.000000
2,4,6,0,4836923,84774903,-7151830547860304095,1361375724.050546,-192,648,-16488,nan,0.000000
2,4,6,0,4836923,84774903,-7151830547860301474,1361375724.050546,-172,632,-16516,nan,0.000000
2,4,7,0,4836923,84774936,-7151830547860298853,1361375724.050883,-200,640,-16472,nan,0.000000
2,4,7,0,4836923,84774936,-7151830547860296232,1361375724.050883,-176,660,-16464,nan,0.000000
2,4,7,0,4836923,84774936,-7151830547860293611,1361375724.050883,-168,640,-16532,nan,0.000000
2,4,7,0,4836923,84774936,-7151830547860290990,1361375724.050883,-104,612,-16528,nan,0.000000
2,4,7,0,4836923,84774936,-7151830547860288369,1361375724.050883,-172,632,-16460,nan,0.000000
2,4,8,0,4836923,84774967,-7151830547860285748,1361375724.052590,-220,652,-16500,nan,0.000000
2,4,8,0,4836923,84774967,-7151830547860283127,1361375724.052590,-184,648,-16476,nan,0.000000
2,4,8,0,4836923,84774967,-7151830547860280506,1361375724.052590,-96,636,-16476,nan,0.000000
2,4,8,0,4836923,84774967,-7151830547860277885,1361375724.052590,-204,656,-16472,nan,0.000000
2,4,8,0,4836923,84774967,-7151830547860275264,1361375724.052590,-228,652,-16528,nan,0.000000
2,4,9,0,4836923,84775000,-7151830547860272643,1361375724.053096,-152,636,-16448,nan,0.000000
2,4,9,0,4836923,84775000,-7151830547860270022,1361375724.053096,-128,648,-16472,nan,0.000000
2,4,9,0,4836923,84775000,-7151830547860267401,1361375724.053096,-120,644,-16480,nan,0.000000
2,4,9,0,4836923,84775000,-7151830547860264780,1361375724.053096,-152,644,-16468,nan,0.000000
2,4,9,0,4836923,84775000,-7151830547860262159,1361375724.053096,-160,648,-16488,nan,0.000000
2,4,10,0,4836923,84775031,-7151830547860259538,1361375725.942932,-152,624,-16476,nan,0.000000
2,4,10,0,4836923,84775031,-7151830547860256917,1361375725.942932,-176,648,-16440,nan,0.000000
2,4,10,0,4836923,84775031,-7151830547860254296,1361375725.942932,-132,656,-16480,nan,0.000000
2,4,10,0,4836923,84775031,-7151830547860251675,1361375725.942932,-148,660,-16472,nan,0.000000
2,4,10,0,4836923,84775031,-7151830547860249054,1361375725.942932,-176,672,-16512,nan,0.000000
1,5,3,0,15995949,84836977,4106025070671768826,1361375725.944870,15236,5664,60,nan,0.000000
1,5,3,0,15995949,84836977,4106025070671771447,1361375725.944870,15960,5156,1012,nan,0.000000
2,5,4,0,15995949,84837009,4106025070671774068,1361375725.945750,19320,5712,604,nan,0.000000
2,5,4,0,15995949,84837009,4106025070671776689,1361375725.945750,19856,1788,-2284,nan,0.000000
2,5,4,0,15995949,84837009,4106025070671779310,1361375725.945750,14148,720,-2232,nan,0.000000
2,5,4,0,15995949,84837009,4106025070671781931,1361375725.945750,16024,2236,-396,nan,0.000000
2,5,4,0,15995949,84837009,4106025070671784552,1361375725.945750,13904,1776,-384,nan,0.000000
2,5,5,0,15995949,84837040,4106025070671787173,1361375725.946613,13716,3384,1184,nan,0.000000
2,5,5,0,15995949,84837040,4106025070671789794,1361375725.946613,14044,3528,1968,nan,0.000000
2,5,5,0,15995949,84837040,4106025070671792415,1361375725.946613,13912,5180,2008,nan,0.000000
2,5,5,0,15995949,84837040,4106025070671795036,1361375725.946613,17632,1376,2028,nan,0.000000
2,5,5,0,15995949,84837040,4106025070671797657,1361375725.946613,19284,7512,1908,nan,0.000000
2,5,6,0,15995949,84837073,4106025070671800278,1361375725.947568,22916,616,-2700,nan,0.000000
2,5,6,0,15995949,84837073,4106025070671802899,1361375725.947568,13312,2816,-2336,nan,0.000000
2,5,6,0,15995949,84837073,4106025070671805520,1361375725.947568,14396,748,-2444,nan,0.000000
2,5,6,0,15995949,84837073,4106025070671808141,1361375725.947568,12796,4012,-1356,nan,0.000000
2,5,6,0,15995949,84837073,4106025070671810762,1361375725.947568,14864,1444,-1768,nan,0.000000
2,5,7,0,15995949,84837104,4106025070671813383,1361375725.948630,13688,3992,-456,nan,0.000000
2,5,7,0,15995949,84837104,4106025070671816004,1361375725.948630,15488,4064,-588,nan,0.000000
2,5,7,0,15995949,84837104,4106025070671818625,1361375725.948630,16492,6164,476,nan,0.000000
2,5,7,0,15995949,84837104,4106025070671821246,1361375725.948630,19824,6504,248,nan,0.000000
2,5,7,0,15995949,84837104,4106025070671823867,1361375725.948630,20116,2716,-4192,nan,0.000000
2,5,8,0,15995949,84837136,4106025070671826488,1361375725.949497,13580,244,-2592,nan,0.000000
2,5,8,0,15995949,84837136,4106025070671829109,1361375725.949497,15152,3420,-1780,nan,0.000000
2,5,8,0,15995949,84837136,4106025070671831730,1361375725.949497,13616,1236,-504,nan,0.000000
2,5,8,0,15995949,84837136,4106025070671834351,1361375725.949497,14500,3524,384,nan,0.000000
2,5,8,0,15995949,84837136,4106025070671836972,1361375725.949497,14132,3316,220,nan,0.000000
2,5,9,0,15995949,84837168,4106025070671839593,1361375726.782890,14556,5152,1024,nan,0.000000
2,5,9,0,15995949,84837168,4106025070671842214,1361375726.782890,16796,3216,1048,nan,0.000000
2,5,9,0,15995949,84837168,4106025070671844835,1361375726.782890,19984,5896,184,nan,0.000000
2,5,9,0,15995949,84837168,4106025070671847456,1361375726.782890,21552,4264,-7104,nan,0.000000
2,5,9,0,15995949,84837168,4106025070671850077,1361375726.782890,12788,2628,-2252,nan,0.000000
1,4,11,0,4926559,84864481,-3981314002041985857,1361375726.784712,-136,668,-16504,nan,0.000000
1,4,11,0,4926559,84864481,-3981314002041983236,1361375726.784712,-204,644,-16504,nan,0.000000
2,4,12,0,4926559,84864513,-3981314002041980615,1361375726.784976,-148,644,-16464,nan,0.000000
2,4,12,0,4926559,84864513,-3981314002041977994,1361375726.784976,-152,632,-16508,nan,0.000000
2,4,12,0,4926559,84864513,-3981314002041975373,1361375726.784976,-140,668,-16484,nan,0.000000
2,4,12,0,4926559,84864513,-3981314002041972752,1361375726.784976,-180,628,-16452,nan,0.000000
2,4,12,0,4926559,84864513,-3981314002041970131,1361375726.784976,-144,680,-16468,nan,0.000000
2,4,13,0,4926559,84864544,-3981314002041967510,1361375726.785565,-156,636,-16496,nan,0.000000
2,4,13,0,4926559,84864544,-3981314002041964889,1361375726.785565,-224,656,-16480,nan,0.000000
2,4,13,0,4926559,84864544,-3981314002041962268,1361375726.785565,-136,628,-16472,nan,0.000000
2,4,13,0,4926559,84864544,-3981314002041959647,1361375726.785565,-188,656,-16544,nan,0.000000
2,4,13,0,4926559,84864544,-3981314002041957026,1361375726.785565,-148,612,-16500,nan,0.000000
2,4,14,0,4926559,84864576,-3981314002041954405,1361375726.786590,-192,648,-16480,nan,0.000000
2,4,14,0,4926559,84864576,-3981314002041951784,1361375726.786590,-172,648,-16448,nan,0.000000
2,4,14,0,4926559,84864576,-3981314002041949163,1361375726.786590,-172,624,-16492,nan,0.000000
2,4,14,0,4926559,84864576,-3981314002041946542,1361375726.786590,-164,612,-16520,nan,0.000000
2,4,14,0,4926559,84864576,-3981314002041943921,1361375726.786590,-160,648,-16504,nan,0.000000
2,4,15,0,4926559,84864609,-3981314002041941300,1361375726.787105,-192,680,-16504,nan,0.000000
2,4,15,0,4926559,84864609,-3981314002041938679,1361375726.787105,-196,656,-16488,nan,0.000000
2,4,15,0,4926559,84864609,-3981314002041936058,1361375726.787105,-180,612,-16512,nan,0.000000
2,4,15,0,4926559,84864609,-3981314002041933437,1361375726.787105,-152,640,-16484,nan,0.000000
2,4,15,0,4926559,84864609,-3981314002041930816,1361375726.787105,-196,684,-16524,nan,0.000000
2,4,0,0,4926559,84864640,-3981314002041928195,1361375726.788518,-176,684,-16504,nan,0.000000
2,4,0,0,4926559,84864640,-3981314002041925574,1361375726.788518,-184,676,-16480,nan,0.000000
2,4,0,0,4926559,84864640,-3981314002041922953,1361375726.788518,-180,676,-16508,nan,0.000000
2,4,0,0,4926559,84864640,-3981314002041920332,1361375726.788518,-200,640,-16504,nan,0.000000
2,4,0,0,4926559,84864640,-3981314002041917711,1361375726.788518,-208,636,-16516,nan,0.000000
2,4,1,0,4926559,84864673,-3981314002041915090,1361375728.436880,-140,636,-16480,nan,0.000000
2,4,1,0,4926559,84864673,-3981314002041912469,1361375728.436880,-144,652,-16516,nan,0.000000
2,4,1,0,4926559,84864673,-3981314002041909848,1361375728.436880,-172,628,-16488,nan,0.000000
2,4,1,0,4926559,84864673,-3981314002041907227,1361375728.436880,-160,624,-16476,nan,0.000000
2,4,1,0,4926559,84864673,-3981314002041904606,1361375728.436880,-160,640,-16504,nan,0.000000
1,5,10,0,16077270,84918646,1730666540652625924,1361375728.437489,13048,3724,-2608,nan,0.000000
1,5,10,0,16077270,84918646,1730666540652628545,1361375728.437489,14484,2292,-2900,nan,0.000000
2,5,11,0,16077270,84918678,1730666540652631166,1361375728.438664,13972,2996,-1856,nan,0.000000
2,5,11,0,16077270,84918678,1730666540652633787,1361375728.438664,15288,4528,-1208,nan,0.000000
2,5,11,0,16077270,84918678,1730666540652636408,1361375728.438664,15500,5428,-1100,nan,0.000000
2,5,11,0,16077270,84918678,1730666540652639029,1361375728.438664,17968,5672,436,nan,0.000000
2,5,11,0,16077270,84918678,1730666540652641650,1361375728.438664,19304,9588,-1072,nan,0.000000
2,5,12,0,16077270,84918710,1730666540652644271,1361375728.439762,17968,-2992,-5136,nan,0.000000
2,5,12,0,16077270,84918710,1730666540652646892,1361375728.439762,14968,4388,-728,nan,0.000000
2,5,12,0,16077270,84918710,1730666540652649513,1361375728.439762,14112,424,-1404,nan,0.000000
2,5,12,0,16077270,84918710,1730666540652652134,1361375728.439762,14204,3152,152,nan,0.000000
2,5,12,0,16077270,84918710,1730666540652654755,1361375728.439762,14232,3496,672,nan,0.000000
2,5,13,0,16077270,84918742,1730666540652657376,1361375728.440736,13928,3644,1312,nan,0.000000
2,5,13,0,16077270,84918742,1730666540652659997,1361375728.440736,15980,3056,1332,nan,0.000000
2,5,13,0,16077270,84918742,1730666540652662618,1361375728.440736,15724,4916,2664,nan,0.000000
2,5,13,0,16077270,84918742,1730666540652665239,1361375728.440736,21440,4848,-164,nan,0.000000
2,5,13,0,16077270,84918742,1730666540652667860,1361375728.440736,20508,-236,-3196,nan,0.000000
2,5,14,0,16077270,84918773,1730666540652670481,1361375728.441315,12404,288,-944,nan,0.000000
2,5,14,0,16077270,84918773,1730666540652673102,1361375728.441315,15712,456,-2472,nan,0.000000
2,5,14,0,16077270,84918773,1730666540652675723,1361375728.441315,14200,2616,-2256,nan,0.000000
2,5,14,0,16077270,84918773,1730666540652678344,1361375728.441315,15008,2996,-920,nan,0.000000
2,5,14,0,16077270,84918773,1730666540652680965,1361375728.441315,14620,4776,-292,nan,0.000000
2,5,15,0,16077270,84918806,1730666540652683586,1361375728.442037,14640,4912,-28,nan,0.000000
2,5,15,0,16077270,84918806,1730666540652686207,1361375728.442037,14976,4984,72,nan,0.000000
2,5,15,0,16077270,84918806,1730666540652688828,1361375728.442037,17268,5256,1372,nan,0.000000
2,5,15,0,16077270,84918806,1730666540652691449,1361375728.442037,22700,1864,-1692,nan,0.000000
2,5,15,0,16077270,84918806,1730666540652694070,1361375728.442037,15616,960,-4080,nan,0.000000
2,5,0,0,16077270,84918837,1730666540652696691,1361375729.518818,15088,4092,-1200,nan,0.000000
2,5,0,0,16077270,84918837,1730666540652699312,1361375729.518818,13340,1728,-180,nan,0.000000
2,5,0,0,16077270,84918837,1730666540652701933,1361375729.518818,14448,2964,492,nan,0.000000
2,5,0,0,16077270,84918837,1730666540652704554,1361375729.518818,13832,3560,624,nan,0.000000
2,5,0,0,16077270,84918837,1730666540652707175,1361375729.518818,14584,4152,1532,nan,0.000000
1,4,2,0,5016195,84954120,8989057323368423615,1361375729.520629,-148,632,-16484,nan,0.000000
1,4,2,0,5016195,84954120,8989057323368426236,1361375729.520629,-180,652,-16468,nan,0.000000
2,4,3,0,5016195,84954152,8989057323368428857,1361375729.521036,-204,684,-16448,nan,0.000000
2,4,3,0,5016195,84954152,8989057323368431478,1361375729.521036,-180,640,-16628,nan,0.000000
2,4,3,0,5016195,84954152,8989057323368434099,1361375729.521036,-112,632,-16500,nan,0.000000
2,4,3,0,5016195,84954152,8989057323368436720,1361375729.521036,-184,660,-16412,nan,0.000000
2,4,3,0,5016195,84954152,8989057323368439341,1361375729.521036,-200,648,-16520,nan,0.000000
2,4,4,0,5016195,84954184,8989057323368441962,1361375729.521767,-176,680,-16520,nan,0.000000
2,4,4,0,5016195,84954184,8989057323368444583,1361375729.521767,-172,592,-16468,nan,0.000000
2,4,4,0,5016195,84954184,8989057323368447204,1361375729.521767,-176,612,-16480,nan,0.000000
2,4,4,0,5016195,84954184,8989057323368449825,1361375729.521767,-172,680,-16480,nan,0.000000
2,4,4,0,5016195,84954184,8989057323368452446,1361375729.521767,-172,648,-16452,nan,0.000000
2,4,5,0,5016195,84954216,8989057323368455067,1361375729.522504,-192,656,-16520,nan,0.000000
2,4,5,0,5016195,84954216,8989057323368457688,1361375729.522504,-188,656,-16496,nan,0.000000
2,4,5,0,5016195,84954216,8989057323368460309,1361375729.522504,-176,624,-16480,nan,0.000000
2,4,5,0,5016195,84954216,8989057323368462930,1361375729.522504,-208,612,-16464,nan,0.000000
2,4,5,0,5016195,84954216,8989057323368465551,1361375729.522504,-200,672,-16472,nan,0.000000
2,4,6,0,5016195,84954248,8989057323368468172,1361375729.523144,-152,664,-16480,nan,0.000000
2,4,6,0,5016195,84954248,8989057323368470793,1361375729.523144,-124,656,-16516,nan,0.000000
2,4,6,0,5016195,84954248,8989057323368473414,1361375729.523144,-184,628,-16480,nan,0.000000
2,4,6,0,5016195,84954248,8989057323368476035,1361375729.523144,-192,620,-16496,nan,0.000000
2,4,6,0,5016195,84954248,8989057323368478656,1361375729.523144,-172,648,-16512,nan,0.000000
2,4,7,0,5016195,84954280,8989057323368481277,1361375729.524513,-176,592,-16464,nan,0.000000
2,4,7,0,5016195,84954280,8989057323368483898,1361375729.524513,-124,640,-16496,nan,0.000000
2,4,7,0,5016195,84954280,8989057323368486519,1361375729.524513,-136,628,-16480,nan,0.000000
2,4,7,0,5016195,84954280,8989057323368489140,1361375729.524513,-180,644,-16440,nan,0.000000
2,4,7,0,5016195,84954280,8989057323368491761,1361375729.524513,-200,644,-16492,nan,0.000000
2,4,8,0,5016195,84954312,8989057323368494382,1361375730.904838,-168,644,-16516,nan,0.000000
2,4,8,0,5016195,84954312,8989057323368497003,1361375730.904838,-208,656,-16504,nan,0.000000
2,4,8,0,5016195,84954312,8989057323368499624,1361375730.904838,-176,628,-16500,nan,0.000000
2,4,8,0,5016195,84954312,8989057323368502245,1361375730.904838,-176,624,-16472,nan,0.000000
2,4,8,0,5016195,84954312,8989057323368504866,1361375730.904838,-168,652,-16528,nan,0.000000
1,5,1,0,16158591,84999519,5548364398419267835,1361375730.905439,16908,4224,2232,nan,0.000000
1,5,1,0,16158591,84999519,5548364398419270456,1361375730.905439,20040,3364,976,nan,0.000000
2,5,2,0,16158591,84999551,5548364398419273077,1361375730.908949,19972,-828,-5084,nan,0.000000
2,5,2,0,16158591,84999551,5548364398419275698,1361375730.908949,14008,2652,-1560,nan,0.000000
2,5,2,0,16158591,84999551,5548364398419278319,1361375730.908949,15696,268,-2440,nan,0.000000
2,5,2,0,16158591,84999551,5548364398419280940,1361375730.908949,14368,2492,-1936,nan,0.000000
2,5,2,0,16158591,84999551,5548364398419283561,1361375730.908949,15136,2392,-1396,nan,0.000000
2,5,3,0,16158591,84999583,5548364398419286182,1361375730.912134,15856,3744,-740,nan,0.000000
2,5,3,0,16158591,84999583,5548364398419288803,1361375730.912134,14704,4388,96,nan,0.000000
2,5,3,0,16158591,84999583,5548364398419291424,1361375730.912134,14588,5364,-292,nan,0.000000
2,5,3,0,16158591,84999583,5548364398419294045,1361375730.912134,14080,5592,-308,nan,0.000000
2,5,3,0,16158591,84999583,5548364398419296666,1361375730.912134,17884,4044,56,nan,0.000000
2,5,4,0,16158591,84999615,5548364398419299287,1361375730.914644,20020,1168,-956,nan,0.000000
2,5,4,0,16158591,84999615,5548364398419301908,1361375730.914644,16268,1864,-1124,nan,0.000000
2,5,4,0,16158591,84999615,5548364398419304529,1361375730.914644,15848,412,-444,nan,0.000000
2,5,4,0,16158591,84999615,5548364398419307150,1361375730.914644,15192,1048,-644,nan,0.000000
2,5,4,0,16158591,84999615,5548364398419309771,1361375730.914644,15392,1228,-792,nan,0.000000
2,5,5,0,16158591,84999647,5548364398419312392,1361375730.917936,15648,1288,-1104,nan,0.000000
2,5,5,0,16158591,84999647,5548364398419315013,1361375730.917936,16624,2768,-1060,nan,0.000000
2,5,5,0,16158591,84999647,5548364398419317634,1361375730.917936,15924,2788,248,nan,0.000000
2,5,5,0,16158591,84999647,5548364398419320255,1361375730.917936,15964,3848,228,nan,0.000000
2,5,5,0,16158591,84999647,5548364398419322876,1361375730.917936,14816,3044,-8,nan,0.000000
2,5,6,0,16158591,84999679,5548364398419325497,1361375730.921108,16516,5436,-1408,nan,0.000000
2,5,6,0,16158591,84999679,5548364398419328118,1361375730.921108,15136,4820,-824,nan,0.000000
2,5,6,0,16158591,84999679,5548364398419330739,1361375730.921108,15584,5796,-700,nan,0.000000
2,5,6,0,16158591,84999679,5548364398419333360,1361375730.921108,14896,5248,-612,nan,0.000000
2,5,6,0,16158591,84999679,5548364398419335981,1361375730.921108,14736,5396,-308,nan,0.000000
2,5,7,0,16158591,84999711,5548364398419338602,1361375732.254817,14824,5504,220,nan,0.000000
2,5,7,0,16158591,84999711,5548364398419341223,1361375732.254817,15848,4996,432,nan,0.000000
2,5,7,0,16158591,84999711,5548364398419343844,1361375732.254817,17052,6704,1296,nan,0.000000
2,5,7,0,16158591,84999711,5548364398419346465,1361375732.254817,19036,6148,84,nan,0.000000
2,5,7,0,16158591,84999711,5548364398419349086,1361375732.254817,17788,844,-3988,nan,0.000000
1,4,9,0,5105833,85043764,-8592991224913232705,1361375732.255920,-192,616,-16480,nan,0.000000
1,4,9,0,5105833,85043764,-8592991224913230084,1361375732.255920,-176,664,-16480,nan,0.000000
2,4,10,0,5105833,85043796,-8592991224913227463,1361375732.256427,-140,676,-16464,nan,0.000000
2,4,10,0,5105833,85043796,-8592991224913224842,1361375732.256427,-180,640,-16468,nan,0.000000
2,4,10,0,5105833,85043796,-8592991224913222221,1361375732.256427,-152,628,-16468,nan,0.000000
2,4,10,0,5105833,85043796,-8592991224913219600,1361375732.256427,-188,624,-16460,nan,0.000000
2,4,10,0,5105833,85043796,-8592991224913216979,1361375732.256427,-232,612,-16492,nan,0.000000
2,4,11,0,5105833,85043828,-8592991224913214358,1361375732.257204,-180,628,-16452,nan,0.000000
2,4,11,0,5105833,85043828,-8592991224913211737,1361375732.257204,-172,656,-16516,nan,0.000000
2,4,11,0,5105833,85043828,-8592991224913209116,1361375732.257204,-212,660,-16516,nan,0.000000
2,4,11,0,5105833,85043828,-8592991224913206495,1361375732.257204,-136,668,-16500,nan,0.000000
2,4,11,0,5105833,85043828,-8592991224913203874,1361375732.257204,-120,632,-16500,nan,0.000000
2,4,12,0,5105833,85043860,-8592991224913201253,1361375732.258537,-164,648,-16492,nan,0.000000
2,4,12,0,5105833,85043860,-8592991224913198632,1361375732.258537,-176,668,-16488,nan,0.000000
2,4,12,0,5105833,85043860,-8592991224913196011,1361375732.258537,-172,632,-16500,nan,0.000000
2,4,12,0,5105833,85043860,-8592991224913193390,1361375732.258537,-136,616,-16504,nan,0.000000
2,4,12,0,5105833,85043860,-8592991224913190769,1361375732.258537,-160,632,-16468,nan,0.000000
2,4,13,0,5105833,85043892,-8592991224913188148,1361375732.259057,-176,644,-16464,nan,0.000000
2,4,13,0,5105833,85043892,-8592991224913185527,1361375732.259057,-188,624,-16448,nan,0.000000
2,4,13,0,5105833,85043892,-8592991224913182906,1361375732.259057,-188,640,-16540,nan,0.000000
2,4,13,0,5105833,85043892,-8592991224913180285,1361375732.259057,-212,636,-16512,nan,0.000000
2,4,13,0,5105833,85043892,-8592991224913177664,1361375732.259057,-188,656,-16476,nan,0.000000
2,4,14,0,5105833,85043924,-8592991224913175043,1361375732.260443,-196,628,-16456,nan,0.000000
2,4,14,0,5105833,85043924,-8592991224913172422,1361375732.260443,-188,668,-16496,nan,0.000000
2,4,14,0,5105833,85043924,-8592991224913169801,1361375732.260443,-176,616,-16480,nan,0.000000
2,4,14,0,5105833,85043924,-8592991224913167180,1361375732.260443,-192,632,-16484,nan,0.000000
2,4,14,0,5105833,85043924,-8592991224913164559,1361375732.260443,-192,660,-16476,nan,0.000000
2,4,15,0,5105833,85043956,-8592991224913161938,1361375733.384769,-180,644,-16480,nan,0.000000
2,4,15,0,5105833,85043956,-8592991224913159317,1361375733.384769,-180,624,-16492,nan,0.000000
2,4,15,0,5105833,85043956,-8592991224913156696,1361375733.384769,-204,628,-16524,nan,0.000000
2,4,15,0,5105833,85043956,-8592991224913154075,1361375733.384769,-156,648,-16508,nan,0.000000
2,4,15,0,5105833,85043956,-8592991224913151454,1361375733.384769,-220,664,-16500,nan,0.000000
1,5,8,0,16239910,85080825,-5764180827021911040,1361375733.386714,15180,3076,-2360,nan,0.000000
1,5,8,0,16239910,85080825,-5764180827021908419,1361375733.386714,13808,2356,-472,nan,0.000000
2,5,9,0,16239910,85080857,-5764180827021905798,1361375733.387530,14912,3704,148,nan,0.000000
2,5,9,0,16239910,85080857,-5764180827021903177,1361375733.387530,14420,3704,548,nan,0.000000
2,5,9,0,16239910,85080857,-5764180827021900556,1361375733.387530,14980,4668,764,nan,0.000000
2,5,9,0,16239910,85080857,-5764180827021897935,1361375733.387530,16804,3692,2212,nan,0.000000
2,5,9,0,16239910,85080857,-5764180827021895314,1361375733.387530,19616,5028,-12,nan,0.000000
2,5,10,0,16239910,85080888,-5764180827021892693,1361375733.388539,19352,4892,-4688,nan,0.000000
2,5,10,0,16239910,85080888,-5764180827021890072,1361375733.388539,14388,1972,-2772,nan,0.000000
2,5,10,0,16239910,85080888,-5764180827021887451,1361375733.388539,14732,2620,-2276,nan,0.000000
2,5,10,0,16239910,85080888,-5764180827021884830,1361375733.388539,13004,3220,-1600,nan,0.000000
2,5,10,0,16239910,85080888,-5764180827021882209,1361375733.388539,14796,1944,-1652,nan,0.000000
2,5,11,0,16239910,85080921,-5764180827021879588,1361375733.389219,13608,3300,-336,nan,0.000000
2,5,11,0,16239910,85080921,-5764180827021876967,1361375733.389219,14780,4996,168,nan,0.000000
2,5,11,0,16239910,85080921,-5764180827021874346,1361375733.389219,17212,6700,-476,nan,0.000000
2,5,11,0,16239910,85080921,-5764180827021871725,1361375733.389219,19132,9112,772,nan,0.000000
2,5,11,0,16239910,85080921,-5764180827021869104,1361375733.389219,20256,-1864,-4180,nan,0.000000
2,5,12,0,16239910,85080952,-5764180827021866483,1361375733.390508,15380,1564,-1224,nan,0.000000
2,5,12,0,16239910,85080952,-5764180827021863862,1361375733.390508,15072,3280,-1288,nan,0.000000
2,5,12,0,16239910,85080952,-5764180827021861241,1361375733.390508,12704,2528,324,nan,0.000000
2,5,12,0,16239910,85080952,-5764180827021858620,1361375733.390508,13628,3336,1320,nan,0.000000
2,5,12,0,16239910,85080952,-5764180827021855999,1361375733.390508,13928,4684,1356,nan,0.000000
2,5,13,0,16239910,85080985,-5764180827021853378,1361375733.391239,16228,3132,2472,nan,0.000000
2,5,13,0,16239910,85080985,-5764180827021850757,1361375733.391239,16356,6268,3300,nan,0.000000
2,5,13,0,16239910,85080985,-5764180827021848136,1361375733.391239,22004,3816,-516,nan,0.000000
2,5,13,0,16239910,85080985,-5764180827021845515,1361375733.391239,16820,1684,-1732,nan,0.000000
2,5,13,0,16239910,85080985,-5764180827021842894,1361375733.391239,15736,-1568,-460,nan,0.000000
2,5,14,0,16239910,85081016,-5764180827021840273,1361375734.990743,13844,2540,-604,nan,0.000000
2,5,14,0,16239910,85081016,-5764180827021837652,1361375734.990743,13892,2748,-1012,nan,0.000000
2,5,14,0,16239910,85081016,-5764180827021835031,1361375734.990743,14920,4436,600,nan,0.000000
2,5,14,0,16239910,85081016,-5764180827021832410,1361375734.990743,14956,4924,1384,nan,0.000000
2,5,14,0,16239910,85081016,-5764180827021829789,1361375734.990743,14456,5252,-76,nan,0.000000
1,4,0,0,5195469,85133403,-7728335280360415041,1361375734.991920,-220,628,-16480,nan,0.000000
1,4,0,0,5195469,85133403,-7728335280360412420,1361375734.991920,-184,636,-16484,nan,0.000000
2,4,1,0,5195469,85133434,-7728335280360409799,1361375734.992381,-184,688,-16532,nan,0.000000
2,4,1,0,5195469,85133434,-7728335280360407178,1361375734.992381,-140,656,-16480,nan,0.000000
2,4,1,0,5195469,85133434,-7728335280360404557,1361375734.992381,-188,636,-16488,nan,0.000000
2,4,1,0,5195469,85133434,-7728335280360401936,1361375734.992381,-172,668,-16508,nan,0.000000
2,4,1,0,5195469,85133434,-7728335280360399315,1361375734.992381,-172,704,-16492,nan,0.000000
2,4,2,0,5195469,85133467,-7728335280360396694,1361375734.993090,-192,640,-16532,nan,0.000000
2,4,2,0,5195469,85133467,-7728335280360394073,1361375734.993090,-144,660,-16488,nan,0.000000
2,4,2,0,5195469,85133467,-7728335280360391452,1361375734.993090,-192,628,-16516,nan,0.000000
2,4,2,0,5195469,85133467,-7728335280360388831,1361375734.993090,-148,652,-16480,nan,0.000000
2,4,2,0,5195469,85133467,-7728335280360386210,1361375734.993090,-204,648,-16520,nan,0.000000
2,4,3,0,5195469,85133498,-7728335280360383589,1361375734.994376,-124,648,-16516,nan,0.000000
2,4,3,0,5195469,85133498,-7728335280360380968,1361375734.994376,-184,632,-16484,nan,0.000000
2,4,3,0,5195469,85133498,-7728335280360378347,1361375734.994376,-164,660,-16528,nan,0.000000
2,4,3,0,5195469,85133498,-7728335280360375726,1361375734.994376,-168,652,-16508,nan,0.000000
2,4,3,0,5195469,85133498,-7728335280360373105,1361375734.994376,-188,656,-16464,nan,0.000000
2,4,4,0,5195469,85133531,-7728335280360370484,1361375734.994978,-152,704,-16460,nan,0.000000
2,4,4,0,5195469,85133531,-7728335280360367863,1361375734.994978,-200,648,-16476,nan,0.000000
2,4,4,0,5195469,85133531,-7728335280360365242,1361375734.994978,-124,640,-16520,nan,0.000000
2,4,4,0,5195469,85133531,-7728335280360362621,1361375734.994978,-156,640,-16488,nan,0.000000
2,4,4,0,5195469,85133531,-7728335280360360000,1361375734.994978,-232,660,-16468,nan,0.000000
2,4,5,0,5195469,85133562,-7728335280360357379,1361375734.996379,-184,648,-16496,nan,0.000000
2,4,5,0,5195469,85133562,-7728335280360354758,1361375734.996379,-164,612,-16476,nan,0.000000
2,4,5,0,5195469,85133562,-7728335280360352137,1361375734.996379,-160,648,-16452,nan,0.000000
2,4,5,0,5195469,85133562,-7728335280360349516,1361375734.996379,-152,628,-16508,nan,0.000000
2,4,5,0,5195469,85133562,-7728335280360346895,1361375734.996379,-200,652,-16500,nan,0.000000
2,4,6,0,5195469,85133594,-7728335280360344274,1361375735.866662,-196,660,-16444,nan,0.000000
2,4,6,0,5195469,85133594,-7728335280360341653,1361375735.866662,-156,648,-16488,nan,0.000000
2,4,6,0,5195469,85133594,-7728335280360339032,1361375735.866662,-176,596,-16488,nan,0.000000
2,4,6,0,5195469,85133594,-7728335280360336411,1361375735.866662,-200,652,-16520,nan,0.000000
2,4,6,0,5195469,85133594,-7728335280360333790,1361375735.866662,-152,584,-16488,nan,0.000000
1,5,15,0,16321228,85162146,935829574866347261,1361375735.868713,23084,3460,-144,nan,0.000000
1,5,15,0,16321228,85162146,935829574866349882,1361375735.868713,16548,-3364,-3764,nan,0.000000
2,5,0,0,16321228,85162178,935829574866352503,1361375735.869537,16576,6304,-760,nan,0.000000
2,5,0,0,16321228,85162178,935829574866355124,1361375735.869537,12848,-168,212,nan,0.000000
2,5,0,0,16321228,85162178,935829574866357745,1361375735.869537,14324,3876,1028,nan,0.000000
2,5,0,0,16321228,85162178,935829574866360366,1361375735.869537,13380,3324,1596,nan,0.000000
2,5,0,0,16321228,85162178,935829574866362987,1361375735.869537,13928,4172,2296,nan,0.000000
2,5,1,0,16321228,85162210,935829574866365608,1361375735.870456,15660,2776,1932,nan,0.000000
2,5,1,0,16321228,85162210,935829574866368229,1361375735.870456,18952,7636,2960,nan,0.000000
2,5,1,0,16321228,85162210,935829574866370850,1361375735.870456,22448,-1128,-1664,nan,0.000000
2,5,1,0,16321228,85162210,935829574866373471,1361375735.870456,16000,2792,-1976,nan,0.000000
2,5,1,0,16321228,85162210,935829574866376092,1361375735.870456,15636,-1732,-1384,nan,0.000000
2,5,2,0,16321228,85162242,935829574866378713,1361375735.871397,13104,3556,-1292,nan,0.000000
2,5,2,0,16321228,85162242,935829574866381334,1361375735.871397,14340,3052,-1228,nan,0.000000
2,5,2,0,16321228,85162242,935829574866383955,1361375735.871397,14536,4464,248,nan,0.000000
2,5,2,0,16321228,85162242,935829574866386576,1361375735.871397,14876,3612,1096,nan,0.000000
2,5,2,0,16321228,85162242,935829574866389197,1361375735.871397,14148,5288,-192,nan,0.000000
2,5,3,0,16321228,85162274,935829574866391818,1361375735.872316,18068,4268,2664,nan,0.000000
2,5,3,0,16321228,85162274,935829574866394439,1361375735.872316,21612,4720,-1348,nan,0.000000
2,5,3,0,16321228,85162274,935829574866397060,1361375735.872316,17508,-2324,-4576,nan,0.000000
2,5,3,0,16321228,85162274,935829574866399681,1361375735.872316,15260,5880,-1356,nan,0.000000
2,5,3,0,16321228,85162274,935829574866402302,1361375735.872316,13992,1160,-844,nan,0.000000
2,5,4,0,16321228,85162306,935829574866404923,1361375735.873274,13936,2692,628,nan,0.000000
2,5,4,0,16321228,85162306,935829574866407544,1361375735.873274,14820,2928,504,nan,0.000000
2,5,4,0,16321228,85162306,935829574866410165,1361375735.873274,14856,4168,1560,nan,0.000000
2,5,4,0,16321228,85162306,935829574866412786,1361375735.873274,14804,3696,1528,nan,0.000000
2,5,4,0,16321228,85162306,935829574866415407,1361375735.873274,15960,3356,1616,nan,0.000000
2,5,5,0,16321228,85162338,935829574866418028,1361375737.726796,15828,6672,2888,nan,0.000000
2,5,5,0,16321228,85162338,935829574866420649,1361375737.726796,20316,1652,500,nan,0.000000
2,5,5,0,16321228,85162338,935829574866423270,1361375737.726796,18492,4112,-2816,nan,0.000000
2,5,5,0,16321228,85162338,935829574866425891,1361375737.726796,14876,1868,-2312,nan,0.000000
2,5,5,0,16321228,85162338,935829574866428512,1361375737.726796,15116,1320,-1712,nan,0.000000
1,4,7,0,5285105,85223045,-7440078515526974273,1361375737.727893,-156,660,-16460,nan,0.000000
1,4,7,0,5285105,85223045,-7440078515526971652,1361375737.727893,-208,652,-16472,nan,0.000000
2,4,8,0,5285105,85223077,-7440078515526969031,1361375737.728213,-164,660,-16436,nan,0.000000
2,4,8,0,5285105,85223077,-7440078515526966410,1361375737.728213,-140,616,-16492,nan,0.000000
2,4,8,0,5285105,85223077,-7440078515526963789,1361375737.728213,-204,612,-16460,nan,0.000000
2,4,8,0,5285105,85223077,-7440078515526961168,1361375737.728213,-200,660,-16528,nan,0.000000
2,4,8,0,5285105,85223077,-7440078515526958547,1361375737.728213,-180,628,-16448,nan,0.000000
2,4,9,0,5285105,85223108,-7440078515526955926,1361375737.728938,-184,644,-16500,nan,0.000000
2,4,9,0,5285105,85223108,-7440078515526953305,1361375737.728938,-152,676,-16504,nan,0.000000
2,4,9,0,5285105,85223108,-7440078515526950684,1361375737.728938,-152,620,-16504,nan,0.000000
2,4,9,0,5285105,85223108,-7440078515526948063,1361375737.728938,-172,664,-16496,nan,0.000000
2,4,9,0,5285105,85223108,-7440078515526945442,1361375737.728938,-180,612,-16468,nan,0.000000
2,4,10,0,5285105,85223141,-7440078515526942821,1361375737.729687,-192,612,-16500,nan,0.000000
2,4,10,0,5285105,85223141,-7440078515526940200,1361375737.729687,-188,616,-16468,nan,0.000000
2,4,10,0,5285105,85223141,-7440078515526937579,1361375737.729687,-156,656,-16472,nan,0.000000
2,4,10,0,5285105,85223141,-7440078515526934958,1361375737.729687,-188,668,-16524,nan,0.000000
2,4,10,0,5285105,85223141,-7440078515526932337,1361375737.729687,-172,632,-16484,nan,0.000000
2,4,11,0,5285105,85223172,-7440078515526929716,1361375737.730437,-192,644,-16484,nan,0.000000
2,4,11,0,5285105,85223172,-7440078515526927095,1361375737.730437,-156,640,-16528,nan,0.000000
2,4,11,0,5285105,85223172,-7440078515526924474,1361375737.730437,-184,632,-16456,nan,0.000000
2,4,11,0,5285105,85223172,-7440078515526921853,1361375737.730437,-160,664,-16504,nan,0.000000
2,4,11,0,5285105,85223172,-7440078515526919232,1361375737.730437,-180,668,-16480,nan,0.000000
2,4,12,0,5285105,85223205,-7440078515526916611,1361375737.731076,-200,648,-16520,nan,0.000000
2,4,12,0,5285105,85223205,-7440078515526913990,1361375737.731076,-192,664,-16484,nan,0.000000
2,4,12,0,5285105,85223205,-7440078515526911369,1361375737.731076,-188,624,-16480,nan,0.000000
2,4,12,0,5285105,85223205,-7440078515526908748,1361375737.731076,-180,620,-16508,nan,0.000000
2,4,12,0,5285105,85223205,-7440078515526906127,1361375737.731076,-168,660,-16536,nan,0.000000
2,4,13,0,5285105,85223236,-7440078515526903506,1361375738.348577,-196,644,-16524,nan,0.000000
2,4,13,0,5285105,85223236,-7440078515526900885,1361375738.348577,-120,652,-16496,nan,0.000000
2,4,13,0,5285105,85223236,-7440078515526898264,1361375738.348577,-124,704,-16516,nan,0.000000
2,4,13,0,5285105,85223236,-7440078515526895643,1361375738.348577,-156,664,-16440,nan,0.000000
2,4,13,0,5285105,85223236,-7440078515526893022,1361375738.348577,-188,620,-16488,nan,0.000000
1,5,6,0,16402547,85243468,-864282082811099125,1361375738.350587,15556,2944,-740,nan,0.000000
1,5,6,0,16402547,85243468,-864282082811096504,1361375738.350587,14948,3148,-792,nan,0.000000
2,5,7,0,16402547,85243500,-864282082811093883,1361375738.351417,15800,4252,-192,nan,0.000000
2,5,7,0,16402547,85243500,-864282082811091262,1361375738.351417,14448,5492,156,nan,0.000000
2,5,7,0,16402547,85243500,-864282082811088641,1361375738.351417,15000,5016,196,nan,0.000000
2,5,7,0,16402547,85243500,-864282082811086020,1361375738.351417,14784,5352,1348,nan,0.000000
2,5,7,0,16402547,85243500,-864282082811083399,1361375738.351417,17608,5952,840,nan,0.000000
2,5,8,0,16402547,85243532,-864282082811080778,1361375738.352367,21612,1792,-820,nan,0.000000
2,5,8,0,16402547,85243532,-864282082811078157,1361375738.352367,13776,968,-1316,nan,0.000000
2,5,8,0,16402547,85243532,-864282082811075536,1361375738.352367,15620,1452,316,nan,0.000000
2,5,8,0,16402547,85243532,-864282082811072915,1361375738.352367,16252,2368,-248,nan,0.000000
2,5,8,0,16402547,85243532,-864282082811070294,1361375738.352367,14872,1932,704,nan,0.000000
2,5,9,0,16402547,85243564,-864282082811067673,1361375738.353333,15200,2404,1048,nan,0.000000
2,5,9,0,16402547,85243564,-864282082811065052,1361375738.353333,14860,3008,1540,nan,0.000000
2,5,9,0,16402547,85243564,-864282082811062431,1361375738.353333,15424,2244,2120,nan,0.000000
2,5,9,0,16402547,85243564,-864282082811059810,1361375738.353333,15408,3188,2632,nan,0.000000
2,5,9,0,16402547,85243564,-864282082811057189,1361375738.353333,18912,3028,972,nan,0.000000
2,5,10,0,16402547,85243596,-864282082811054568,1361375738.354364,15812,1724,796,nan,0.000000
2,5,10,0,16402547,85243596,-864282082811051947,1361375738.354364,16524,592,-416,nan,0.000000
2,5,10,0,16402547,85243596,-864282082811049326,1361375738.354364,16124,1876,-1576,nan,0.000000
2,5,10,0,16402547,85243596,-864282082811046705,1361375738.354364,16476,3308,-756,nan,0.000000
2,5,10,0,16402547,85243596,-864282082811044084,1361375738.354364,14900,2672,-1272,nan,0.000000
2,5,11,0,16402547,85243628,-864282082811041463,1361375738.355089,16104,2796,-1724,nan,0.000000
2,5,11,0,16402547,85243628,-864282082811038842,1361375738.355089,15596,3040,-2092,nan,0.000000
2,5,11,0,16402547,85243628,-864282082811036221,1361375738.355089,16712,2632,-1792,nan,0.000000
2,5,11,0,16402547,85243628,-864282082811033600,1361375738.355089,15532,5020,-1612,nan,0.000000
2,5,11,0,16402547,85243628,-864282082811030979,1361375738.355089,16000,3136,1084,nan,0.000000
2,5,12,0,16402547,85243660,-864282082811028358,1361375740.460561,15948,3188,1540,nan,0.000000
2,5,12,0,16402547,85243660,-864282082811025737,1361375740.460561,15716,2928,2024,nan,0.000000
2,5,12,0,16402547,85243660,-864282082811023116,1361375740.460561,15688,3124,2176,nan,0.000000
2,5,12,0,16402547,85243660,-864282082811020495,1361375740.460561,15172,2944,2368,nan,0.000000
2,5,12,0,16402547,85243660,-864282082811017874,1361375740.460561,15584,2776,2948,nan,0.000000
1,4,14,0,5374740,85312684,-8016534869179927361,1361375740.462249,-176,636,-16488,nan,0.000000
1,4,14,0,5374740,85312684,-8016534869179924740,1361375740.462249,-160,636,-16488,nan,0.000000
2,4,15,0,5374740,85312716,-8016534869179922119,1361375740.462649,-172,632,-16508,nan,0.000000
2,4,15,0,5374740,85312716,-8016534869179919498,1361375740.462649,-208,692,-16488,nan,0.000000
2,4,15,0,5374740,85312716,-8016534869179916877,1361375740.462649,-136,648,-16536,nan,0.000000
2,4,15,0,5374740,85312716,-8016534869179914256,1361375740.462649,-168,628,-16496,nan,0.000000
2,4,15,0,5374740,85312716,-8016534869179911635,1361375740.462649,-204,660,-16520,nan,0.000000
2,4,0,0,5374740,85312748,-8016534869179909014,1361375740.464243,-208,636,-16484,nan,0.000000
2,4,0,0,5374740,85312748,-8016534869179906393,1361375740.464243,-196,648,-16536,nan,0.000000
2,4,0,0,5374740,85312748,-8016534869179903772,1361375740.464243,-140,680,-16448,nan,0.000000
2,4,0,0,5374740,85312748,-8016534869179901151,1361375740.464243,-212,608,-16512,nan,0.000000
2,4,0,0,5374740,85312748,-8016534869179898530,1361375740.464243,-160,624,-16504,nan,0.000000
2,4,1,0,5374740,85312780,-8016534869179895909,1361375740.464841,-176,600,-16480,nan,0.000000
2,4,1,0,5374740,85312780,-8016534869179893288,1361375740.464841,-144,704,-16484,nan,0.000000
2,4,1,0,5374740,85312780,-8016534869179890667,1361375740.464841,-160,640,-16524,nan,0.000000
2,4,1,0,5374740,85312780,-8016534869179888046,1361375740.464841,-180,616,-16480,nan,0.000000
2,4,1,0,5374740,85312780,-8016534869179885425,1361375740.464841,-152,632,-16524,nan,0.000000
2,4,2,0,5374740,85312812,-8016534869179882804,1361375740.466310,-152,612,-16492,nan,0.000000
2,4,2,0,5374740,85312812,-8016534869179880183,1361375740.466310,-172,680,-16504,nan,0.000000
2,4,2,0,5374740,85312812,-8016534869179877562,1361375740.466310,-192,616,-16492,nan,0.000000
2,4,2,0,5374740,85312812,-8016534869179874941,1361375740.466310,-176,616,-16484,nan,0.000000
2,4,2,0,5374740,85312812,-8016534869179872320,1361375740.466310,-200,624,-16492,nan,0.000000
2,4,3,0,5374740,85312844,-8016534869179869699,1361375740.466873,-140,592,-16516,nan,0.000000
2,4,3,0,5374740,85312844,-8016534869179867078,1361375740.466873,-164,624,-16452,nan,0.000000
2,4,3,0,5374740,85312844,-8016534869179864457,1361375740.466873,-220,640,-16524,nan,0.000000
2,4,3,0,5374740,85312844,-8016534869179861836,1361375740.466873,-132,616,-16520,nan,0.000000
2,4,3,0,5374740,85312844,-8016534869179859215,1361375740.466873,-208,640,-16464,nan,0.000000
2,4,4,0,5374740,85312876,-8016534869179856594,1361375740.830535,-152,624,-16468,nan,0.000000
2,4,4,0,5374740,85312876,-8016534869179853973,1361375740.830535,-128,640,-16504,nan,0.000000
2,4,4,0,5374740,85312876,-8016534869179851352,1361375740.830535,-180,604,-16484,nan,0.000000
2,4,4,0,5374740,85312876,-8016534869179848731,1361375740.830535,-188,624,-16488,nan,0.000000
2,4,4,0,5374740,85312876,-8016534869179846110,1361375740.830535,-136,660,-16492,nan,0.000000
1,5,13,0,16483867,85324792,-1727288737844624378,1361375740.832575,15496,2376,3224,nan,0.000000
1,5,13,0,16483867,85324792,-1727288737844621757,1361375740.832575,15204,2008,3224,nan,0.000000
2,5,14,0,16483867,85324824,-1727288737844619136,1361375740.833394,15552,2228,3516,nan,0.000000
2,5,14,0,16483867,85324824,-1727288737844616515,1361375740.833394,18200,1120,2076,nan,0.000000
2,5,14,0,16483867,85324824,-1727288737844613894,1361375740.833394,16200,2416,2204,nan,0.000000
2,5,14,0,16483867,85324824,-1727288737844611273,1361375740.833394,18268,996,-156,nan,0.000000
2,5,14,0,16483867,85324824,-1727288737844608652,1361375740.833394,14188,2152,-2212,nan,0.000000
2,5,15,0,16483867,85324856,-1727288737844606031,1361375740.834356,16176,3916,-1624,nan,0.000000
2,5,15,0,16483867,85324856,-1727288737844603410,1361375740.834356,14064,4132,-512,nan,0.000000
2,5,15,0,16483867,85324856,-1727288737844600789,1361375740.834356,15260,4372,-264,nan,0.000000
2,5,15,0,16483867,85324856,-1727288737844598168,1361375740.834356,15224,3756,212,nan,0.000000
2,5,15,0,16483867,85324856,-1727288737844595547,1361375740.834356,14564,4684,228,nan,0.000000
2,5,0,0,16483867,85324888,-1727288737844592926,1361375740.835152,15344,5080,-208,nan,0.000000
2,5,0,0,16483867,85324888,-1727288737844590305,1361375740.835152,17308,4916,1060,nan,0.000000
2,5,0,0,16483867,85324888,-1727288737844587684,1361375740.835152,20048,6704,-1040,nan,0.000000
2,5,0,0,16483867,85324888,-1727288737844585063,1361375740.835152,19096,-2100,-4248,nan,0.000000
2,5,0,0,16483867,85324888,-1727288737844582442,1361375740.835152,13624,3372,-2388,nan,0.000000
2,5,1,0,16483867,85324920,-1727288737844579821,1361375740.836197,15136,744,-1464,nan,0.000000
2,5,1,0,16483867,85324920,-1727288737844577200,1361375740.836197,14060,3172,-320,nan,0.000000
2,5,1,0,16483867,85324920,-1727288737844574579,1361375740.836197,14040,2080,348,nan,0.000000
2,5,1,0,16483867,85324920,-1727288737844571958,1361375740.836197,14484,3156,1096,nan,0.000000
2,5,1,0,16483867,85324920,-1727288737844569337,1361375740.836197,14796,4040,1056,nan,0.000000
2,5,2,0,16483867,85324952,-1727288737844566716,1361375740.837141,17212,2000,1884,nan,0.000000
2,5,2,0,16483867,85324952,-1727288737844564095,1361375740.837141,18908,6648,1700,nan,0.000000
2,5,2,0,16483867,85324952,-1727288737844561474,1361375740.837141,21080,1392,-3148,nan,0.000000
2,5,2,0,16483867,85324952,-1727288737844558853,1361375740.837141,14056,1008,-3308,nan,0.000000
2,5,2,0,16483867,85324952,-1727288737844556232,1361375740.837141,16480,-572,-2004,nan,0.000000
2,5,3,0,16483867,85324984,-1727288737844553611,1361375743.196524,13708,3188,-1356,nan,0.000000
2,5,3,0,16483867,85324984,-1727288737844550990,1361375743.196524,14512,4128,-340,nan,0.000000
2,5,3,0,16483867,85324984,-1727288737844548369,1361375743.196524,14508,5200,-156,nan,0.000000
2,5,3,0,16483867,85324984,-1727288737844545748,1361375743.196524,14372,6196,688,nan,0.000000
2,5,3,0,16483867,85324984,-1727288737844543127,1361375743.196524,14988,4916,112,nan,0.000000
1,4,5,0,5464375,85402325,-8593008815757087553,1361375743.198210,-140,644,-16496,nan,0.000000
1,4,5,0,5464375,85402325,-8593008815757084932,1361375743.198210,-148,616,-16444,nan,0.000000
2,4,6,0,5464375,85402357,-8593008815757082311,1361375743.198609,-196,644,-16500,nan,0.000000
2,4,6,0,5464375,85402357,-8593008815757079690,1361375743.198609,-228,664,-16456,nan,0.000000
2,4,6,0,5464375,85402357,-8593008815757077069,1361375743.198609,-180,644,-16432,nan,0.000000
2,4,6,0,5464375,85402357,-8593008815757074448,1361375743.198609,-148,652,-16460,nan,0.000000
2,4,6,0,5464375,85402357,-8593008815757071827,1361375743.198609,-148,632,-16496,nan,0.000000
2,4,7,0,5464375,85402388,-8593008815757069206,1361375743.200259,-164,624,-16492,nan,0.000000
2,4,7,0,5464375,85402388,-8593008815757066585,1361375743.200259,-188,656,-16444,nan,0.000000
2,4,7,0,5464375,85402388,-8593008815757063964,1361375743.200259,-176,684,-16476,nan,0.000000
2,4,7,0,5464375,85402388,-8593008815757061343,1361375743.200259,-176,668,-16472,nan,0.000000
2,4,7,0,5464375,85402388,-8593008815757058722,1361375743.200259,-216,636,-16512,nan,0.000000
2,4,8,0,5464375,85402421,-8593008815757056101,1361375743.200779,-188,628,-16508,nan,0.000000
2,4,8,0,5464375,85402421,-8593008815757053480,1361375743.200779,-204,628,-16444,nan,0.000000
2,4,8,0,5464375,85402421,-8593008815757050859,1361375743.200779,-184,648,-16456,nan,0.000000
2,4,8,0,5464375,85402421,-8593008815757048238,1361375743.200779,-184,704,-16532,nan,0.000000
2,4,8,0,5464375,85402421,-8593008815757045617,1361375743.200779,-168,624,-16508,nan,0.000000
2,4,9,0,5464375,85402452,-8593008815757042996,1361375743.202234,-176,676,-16468,nan,0.000000
2,4,9,0,5464375,85402452,-8593008815757040375,1361375743.202234,-188,684,-16476,nan,0.000000
2,4,9,0,5464375,85402452,-8593008815757037754,1361375743.202234,-152,644,-16408,nan,0.000000
2,4,9,0,5464375,85402452,-8593008815757035133,1361375743.202234,-192,656,-16488,nan,0.000000
2,4,9,0,5464375,85402452,-8593008815757032512,1361375743.202234,-196,624,-16484,nan,0.000000
2,4,10,0,5464375,85402485,-8593008815757029891,1361375743.202650,-212,628,-16484,nan,0.000000
2,4,10,0,5464375,85402485,-8593008815757027270,1361375743.202650,-184,656,-16516,nan,0.000000
2,4,10,0,5464375,85402485,-8593008815757024649,1361375743.202650,-176,672,-16500,nan,0.000000
2,4,10,0,5464375,85402485,-8593008815757022028,1361375743.202650,-196,684,-16516,nan,0.000000
2,4,10,0,5464375,85402485,-8593008815757019407,1361375743.202650,-200,680,-16508,nan,0.000000
2,4,11,0,5464375,85402516,-8593008815757016786,1361375743.314390,-180,596,-16488,nan,0.000000
2,4,11,0,5464375,85402516,-8593008815757014165,1361375743.314390,-136,644,-16468,nan,0.000000
2,4,11,0,5464375,85402516,-8593008815757011544,1361375743.314390,-164,672,-16416,nan,0.000000
2,4,11,0,5464375,85402516,-8593008815757008923,1361375743.314390,-208,640,-16512,nan,0.000000
2,4,11,0,5464375,85402516,-8593008815757006302,1361375743.314390,-176,672,-16472,nan,0.000000
1,5,4,0,16565185,85406205,-5981307999053368070,1361375743.316292,18820,5352,536,nan,0.000000
1,5,4,0,16565185,85406205,-5981307999053365449,1361375743.316292,17320,-1152,-1672,nan,0.000000
2,5,5,0,16565185,85406237,-5981307999053362828,1361375743.319624,16036,7320,-1740,nan,0.000000
2,5,5,0,16565185,85406237,-5981307999053360207,1361375743.319624,15100,1340,68,nan,0.000000
2,5,5,0,16565185,85406237,-5981307999053357586,1361375743.319624,14372,520,492,nan,0.000000
2,5,5,0,16565185,85406237,-5981307999053354965,1361375743.319624,14692,4016,412,nan,0.000000
2,5,5,0,16565185,85406237,-5981307999053352344,1361375743.319624,16260,3588,996,nan,0.000000
2,5,6,0,16565185,85406269,-5981307999053349723,1361375743.322973,19344,6392,-2496,nan,0.000000
2,5,6,0,16565185,85406269,-5981307999053347102,1361375743.322973,15184,768,-1936,nan,0.000000
2,5,6,0,16565185,85406269,-5981307999053344481,1361375743.322973,14352,4276,-2564,nan,0.000000
2,5,6,0,16565185,85406269,-5981307999053341860,1361375743.322973,15128,4196,-2648,nan,0.000000
2,5,6,0,16565185,85406269,-5981307999053339239,1361375743.322973,14448,5888,-1896,nan,0.000000
2,5,7,0,16565185,85406301,-5981307999053336618,1361375743.328476,15368,4172,-3060,nan,0.000000
2,5,7,0,16565185,85406301,-5981307999053333997,1361375743.328476,14252,4972,-2188,nan,0.000000
2,5,7,0,16565185,85406301,-5981307999053331376,1361375743.328476,14168,6124,-2704,nan,0.000000
2,5,7,0,16565185,85406301,-5981307999053328755,1361375743.328476,13196,5696,-2464,nan,0.000000
2,5,7,0,16565185,85406301,-5981307999053326134,1361375743.328476,16420,8016,-3692,nan,0.000000
2,5,8,0,16565185,85406333,-5981307999053323513,1361375743.332006,15040,6440,-2664,nan,0.000000
2,5,8,0,16565185,85406333,-5981307999053320892,1361375743.332006,16488,7648,-2728,nan,0.000000
2,5,8,0,16565185,85406333,-5981307999053318271,1361375743.332006,18116,6180,-2912,nan,0.000000
2,5,8,0,16565185,85406333,-5981307999053315650,1361375743.332006,17740,-164,-4656,nan,0.000000
2,5,8,0,16565185,85406333,-5981307999053313029,1361375743.332006,14856,1764,-2196,nan,0.000000
2,5,9,0,16565185,85406365,-5981307999053310408,1361375743.332577,16260,1316,-2648,nan,0.000000
2,5,9,0,16565185,85406365,-5981307999053307787,1361375743.332577,14292,2816,-1116,nan,0.000000
2,5,9,0,16565185,85406365,-5981307999053305166,1361375743.332577,14716,1892,-884,nan,0.000000
2,5,9,0,16565185,85406365,-5981307999053302545,1361375743.332577,14364,4144,692,nan,0.000000
2,5,9,0,16565185,85406365,-5981307999053299924,1361375743.332577,14740,4656,636,nan,0.000000
2,5,10,0,16565185,85406397,-5981307999053297303,1361375745.794481,16384,3020,2048,nan,0.000000
2,5,10,0,16565185,85406397,-5981307999053294682,1361375745.794481,18700,7192,712,nan,0.000000
2,5,10,0,16565185,85406397,-5981307999053292061,1361375745.794481,19940,2904,-4264,nan,0.000000
2,5,10,0,16565185,85406397,-5981307999053289440,1361375745.794481,14692,2168,-1556,nan,0.000000
2,5,10,0,16565185,85406397,-5981307999053286819,1361375745.794481,13892,2728,-1824,nan,0.000000
1,5,11,0,16646503,85487437,-4034635807426281464,1361375745.795632,15028,3196,-1612,nan,0.000000
1,5,11,0,16646503,85487437,-4034635807426278843,1361375745.795632,14704,4300,184,nan,0.000000
2,5,12,0,16646503,85487468,-4034635807426276222,1361375745.796167,14324,4968,-480,nan,0.000000
2,5,12,0,16646503,85487468,-4034635807426273601,1361375745.796167,15724,4852,-604,nan,0.000000
2,5,12,0,16646503,85487468,-4034635807426270980,1361375745.796167,18180,7512,28,nan,0.000000
2,5,12,0,16646503,85487468,-4034635807426268359,1361375745.796167,21928,1876,-2948,nan,0.000000
2,5,12,0,16646503,85487468,-4034635807426265738,1361375745.796167,15384,-2436,-3632,nan,0.000000
2,5,13,0,16646503,85487501,-4034635807426263117,1361375745.797014,15492,3168,-1908,nan,0.000000
2,5,13,0,16646503,85487501,-4034635807426260496,1361375745.797014,13744,1472,-1352,nan,0.000000
2,5,13,0,16646503,85487501,-4034635807426257875,1361375745.797014,13584,3312,-828,nan,0.000000
2,5,13,0,16646503,85487501,-4034635807426255254,1361375745.797014,14480,3700,792,nan,0.000000
2,5,13,0,16646503,85487501,-4034635807426252633,1361375745.797014,14300,3984,1580,nan,0.000000
2,5,14,0,16646503,85487532,-4034635807426250012,1361375745.798071,17224,2156,1404,nan,0.000000
2,5,14,0,16646503,85487532,-4034635807426247391,1361375745.798071,18860,6588,1488,nan,0.000000
2,5,14,0,16646503,85487532,-4034635807426244770,1361375745.798071,19540,456,-2476,nan,0.000000
2,5,14,0,16646503,85487532,-4034635807426242149,1361375745.798071,15548,3032,-3724,nan,0.000000
2,5,14,0,16646503,85487532,-4034635807426239528,1361375745.798071,15836,-364,-2064,nan,0.000000
2,5,15,0,16646503,85487564,-4034635807426236907,1361375745.799018,13364,3460,-2084,nan,0.000000
2,5,15,0,16646503,85487564,-4034635807426234286,1361375745.799018,15024,2792,-1544,nan,0.000000
2,5,15,0,16646503,85487564,-4034635807426231665,1361375745.799018,14808,3648,-844,nan,0.000000
2,5,15,0,16646503,85487564,-4034635807426229044,1361375745.799018,14864,4552,-92,nan,0.000000
2,5,15,0,16646503,85487564,-4034635807426226423,1361375745.799018,14880,5320,-172,nan,0.000000
2,5,0,0,16646503,85487596,-4034635807426223802,1361375745.800103,14916,5068,1316,nan,0.000000
2,5,0,0,16646503,85487596,-4034635807426221181,1361375745.800103,20836,5860,-12,nan,0.000000
2,5,0,0,16646503,85487596,-4034635807426218560,1361375745.800103,19380,-1232,-2292,nan,0.000000
2,5,0,0,16646503,85487596,-4034635807426215939,1361375745.800103,14592,3288,-596,nan,0.000000
2,5,0,0,16646503,85487596,-4034635807426213318,1361375745.800103,15068,1008,200,nan,0.000000
2,5,1,0,16646503,85487628,-4034635807426210697,1361375745.932410,14564,2896,616,nan,0.000000
2,5,1,0,16646503,85487628,-4034635807426208076,1361375745.932410,14752,3340,2032,nan,0.000000
2,5,1,0,16646503,85487628,-4034635807426205455,1361375745.932410,13956,3680,2916,nan,0.000000
2,5,1,0,16646503,85487628,-4034635807426202834,1361375745.932410,14200,4056,2720,nan,0.000000
2,5,1,0,16646503,85487628,-4034635807426200213,1361375745.932410,16088,2428,2596,nan,0.000000
1,4,12,0,5554011,85491966,-5998931032479393601,1361375745.934145,-216,648,-16516,nan,0.000000
1,4,12,0,5554011,85491966,-5998931032479390980,1361375745.934145,-188,656,-16476,nan,0.000000
2,4,13,0,5554011,85491998,-5998931032479388359,1361375745.934407,-128,604,-16412,nan,0.000000
2,4,13,0,5554011,85491998,-5998931032479385738,1361375745.934407,-188,620,-16480,nan,0.000000
2,4,13,0,5554011,85491998,-5998931032479383117,1361375745.934407,-224,660,-16492,nan,0.000000
2,4,13,0,5554011,85491998,-5998931032479380496,1361375745.934407,-192,640,-16444,nan,0.000000
2,4,13,0,5554011,85491998,-5998931032479377875,1361375745.934407,-200,636,-16484,nan,0.000000
2,4,14,0,5554011,85492030,-5998931032479375254,1361375745.936113,-180,620,-16492,nan,0.000000
2,4,14,0,5554011,85492030,-5998931032479372633,1361375745.936113,-204,592,-16540,nan,0.000000
2,4,14,0,5554011,85492030,-5998931032479370012,1361375745.936113,-136,632,-16512,nan,0.000000
2,4,14,0,5554011,85492030,-5998931032479367391,1361375745.936113,-216,640,-16472,nan,0.000000
2,4,14,0,5554011,85492030,-5998931032479364770,1361375745.936113,-160,644,-16504,nan,0.000000
2,4,15,0,5554011,85492062,-5998931032479362149,1361375745.936635,-132,684,-16448,nan,0.000000
2,4,15,0,5554011,85492062,-5998931032479359528,1361375745.936635,-200,700,-16496,nan,0.000000
2,4,15,0,5554011,85492062,-5998931032479356907,1361375745.936635,-128,620,-16444,nan,0.000000
2,4,15,0,5554011,85492062,-5998931032479354286,1361375745.936635,-140,648,-16476,nan,0.000000
2,4,15,0,5554011,85492062,-5998931032479351665,1361375745.936635,-120,656,-16496,nan,0.000000
2,4,0,0,5554011,85492094,-5998931032479349044,1361375745.938066,-132,672,-16508,nan,0.000000
2,4,0,0,5554011,85492094,-5998931032479346423,1361375745.938066,-136,624,-16536,nan,0.000000
2,4,0,0,5554011,85492094,-5998931032479343802,1361375745.938066,-192,644,-16444,nan,0.000000
2,4,0,0,5554011,85492094,-5998931032479341181,1361375745.938066,-168,668,-16492,nan,0.000000
2,4,0,0,5554011,85492094,-5998931032479338560,1361375745.938066,-220,624,-16516,nan,0.000000
2,4,1,0,5554011,85492126,-5998931032479335939,1361375745.938431,-160,636,-16496,nan,0.000000
2,4,1,0,5554011,85492126,-5998931032479333318,1361375745.938431,-128,656,-16500,nan,0.000000
2,4,1,0,5554011,85492126,-5998931032479330697,1361375745.938431,-168,636,-16472,nan,0.000000
2,4,1,0,5554011,85492126,-5998931032479328076,1361375745.938431,-184,624,-16528,nan,0.000000
2,4,1,0,5554011,85492126,-5998931032479325455,1361375745.938431,-168,620,-16500,nan,0.000000
2,4,2,0,5554011,85492157,-5998931032479322834,1361375748.276418,-220,648,-16492,nan,0.000000
2,4,2,0,5554011,85492157,-5998931032479320213,1361375748.276418,-140,660,-16440,nan,0.000000
2,4,2,0,5554011,85492157,-5998931032479317592,1361375748.276418,-200,632,-16468,nan,0.000000
2,4,2,0,5554011,85492157,-5998931032479314971,1361375748.276418,-184,592,-16476,nan,0.000000
2,4,2,0,5554011,85492157,-5998931032479312350,1361375748.276418,-212,648,-16488,nan,0.000000
1,5,2,0,16727821,85568757,-1150937927107647486,1361375748.277023,22492,40,256,nan,0.000000
1,5,2,0,16727821,85568757,-1150937927107644865,1361375748.277023,14960,3152,-1308,nan,0.000000
2,5,3,0,16727821,85568789,-1150937927107642244,1361375748.278093,14276,-168,-1688,nan,0.000000
2,5,3,0,16727821,85568789,-1150937927107639623,1361375748.278093,16560,2376,-1708,nan,0.000000
2,5,3,0,16727821,85568789,-1150937927107637002,1361375748.278093,14640,1956,-1676,nan,0.000000
2,5,3,0,16727821,85568789,-1150937927107634381,1361375748.278093,15636,3364,-932,nan,0.000000
2,5,3,0,16727821,85568789,-1150937927107631760,1361375748.278093,15896,3272,-388,nan,0.000000
2,5,4,0,16727821,85568821,-1150937927107629139,1361375748.279489,15072,4072,-468,nan,0.000000
2,5,4,0,16727821,85568821,-1150937927107626518,1361375748.279489,14780,4252,-980,nan,0.000000
2,5,4,0,16727821,85568821,-1150937927107623897,1361375748.279489,14888,5184,-48,nan,0.000000
2,5,4,0,16727821,85568821,-1150937927107621276,1361375748.279489,17912,3064,-1444,nan,0.000000
2,5,4,0,16727821,85568821,-1150937927107618655,1361375748.279489,18536,336,-1780,nan,0.000000
2,5,5,0,16727821,85568853,-1150937927107616034,1361375748.280662,15412,1600,-1100,nan,0.000000
2,5,5,0,16727821,85568853,-1150937927107613413,1361375748.280662,16672,1100,-424,nan,0.000000
2,5,5,0,16727821,85568853,-1150937927107610792,1361375748.280662,15140,-272,-1052,nan,0.000000
2,5,5,0,16727821,85568853,-1150937927107608171,1361375748.280662,15952,380,-856,nan,0.000000
2,5,5,0,16727821,85568853,-1150937927107605550,1361375748.280662,16020,976,-1004,nan,0.000000
2,5,6,0,16727821,85568885,-1150937927107602929,1361375748.281355,16200,812,-428,nan,0.000000
2,5,6,0,16727821,85568885,-1150937927107600308,1361375748.281355,15900,136,-496,nan,0.000000
2,5,6,0,16727821,85568885,-1150937927107597687,1361375748.281355,15748,540,48,nan,0.000000
2,5,6,0,16727821,85568885,-1150937927107595066,1361375748.281355,15944,428,256,nan,0.000000
2,5,6,0,16727821,85568885,-1150937927107592445,1361375748.281355,16112,720,212,nan,0.000000
2,5,7,0,16727821,85568917,-1150937927107589824,1361375748.282184,16176,1268,-824,nan,0.000000
2,5,7,0,16727821,85568917,-1150937927107587203,1361375748.282184,16072,1300,56,nan,0.000000
2,5,7,0,16727821,85568917,-1150937927107584582,1361375748.282184,16916,4596,-3240,nan,0.000000
2,5,7,0,16727821,85568917,-1150937927107581961,1361375748.282184,15660,4792,-1544,nan,0.000000
2,5,7,0,16727821,85568917,-1150937927107579340,1361375748.282184,13672,4776,-2644,nan,0.000000
2,5,8,0,16727821,85568949,-1150937927107576719,1361375748.668402,14716,5008,-1876,nan,0.000000
2,5,8,0,16727821,85568949,-1150937927107574098,1361375748.668402,15092,5352,-1160,nan,0.000000
2,5,8,0,16727821,85568949,-1150937927107571477,1361375748.668402,15524,5032,-1220,nan,0.000000
2,5,8,0,16727821,85568949,-1150937927107568856,1361375748.668402,14956,5172,-1116,nan,0.000000
2,5,8,0,16727821,85568949,-1150937927107566235,1361375748.668402,15752,6088,-820,nan,0.000000
1,4,3,0,5643647,85581606,-3981300807298476865,1361375748.669627,-200,636,-16448,nan,0.000000
1,4,3,0,5643647,85581606,-3981300807298474244,1361375748.669627,-168,624,-16492,nan,0.000000
2,4,4,0,5643647,85581638,-3981300807298471623,1361375748.670063,-204,664,-16520,nan,0.000000
2,4,4,0,5643647,85581638,-3981300807298469002,1361375748.670063,-208,588,-16512,nan,0.000000
2,4,4,0,5643647,85581638,-3981300807298466381,1361375748.670063,-168,620,-16496,nan,0.000000
2,4,4,0,5643647,85581638,-3981300807298463760,1361375748.670063,-184,632,-16500,nan,0.000000
2,4,4,0,5643647,85581638,-3981300807298461139,1361375748.670063,-180,660,-16472,nan,0.000000
2,4,5,0,5643647,85581670,-3981300807298458518,1361375748.670616,-200,664,-16452,nan,0.000000
2,4,5,0,5643647,85581670,-3981300807298455897,1361375748.670616,-152,644,-16520,nan,0.000000
2,4,5,0,5643647,85581670,-3981300807298453276,1361375748.670616,-196,636,-16496,nan,0.000000
2,4,5,0,5643647,85581670,-3981300807298450655,1361375748.670616,-180,640,-16516,nan,0.000000
2,4,5,0,5643647,85581670,-3981300807298448034,1361375748.670616,-132,600,-16460,nan,0.000000
2,4,6,0,5643647,85581702,-3981300807298445413,1361375748.672020,-144,680,-16504,nan,0.000000
2,4,6,0,5643647,85581702,-3981300807298442792,1361375748.672020,-152,636,-16492,nan,0.000000
2,4,6,0,5643647,85581702,-3981300807298440171,1361375748.672020,-200,604,-16500,nan,0.000000
2,4,6,0,5643647,85581702,-3981300807298437550,1361375748.672020,-100,660,-16488,nan,0.000000
2,4,6,0,5643647,85581702,-3981300807298434929,1361375748.672020,-176,672,-16480,nan,0.000000
2,4,7,0,5643647,85581734,-3981300807298432308,1361375748.672987,-168,628,-16480,nan,0.000000
2,4,7,0,5643647,85581734,-3981300807298429687,1361375748.672987,-160,636,-16468,nan,0.000000
2,4,7,0,5643647,85581734,-3981300807298427066,1361375748.672987,-212,608,-16500,nan,0.000000
2,4,7,0,5643647,85581734,-3981300807298424445,1361375748.672987,-212,640,-16512,nan,0.000000
2,4,7,0,5643647,85581734,-3981300807298421824,1361375748.672987,-184,588,-16492,nan,0.000000
2,4,8,0,5643647,85581766,-3981300807298419203,1361375748.674059,-196,636,-16468,nan,0.000000
2,4,8,0,5643647,85581766,-3981300807298416582,1361375748.674059,-188,624,-16536,nan,0.000000
2,4,8,0,5643647,85581766,-3981300807298413961,1361375748.674059,-152,624,-16480,nan,0.000000
2,4,8,0,5643647,85581766,-3981300807298411340,1361375748.674059,-180,624,-16516,nan,0.000000
2,4,8,0,5643647,85581766,-3981300807298408719,1361375748.674059,-192,692,-16496,nan,0.000000
2,4,9,0,5643647,85581798,-3981300807298406098,1361375750.758340,-184,592,-16492,nan,0.000000
2,4,9,0,5643647,85581798,-3981300807298403477,1361375750.758340,-200,664,-16512,nan,0.000000
2,4,9,0,5643647,85581798,-3981300807298400856,1361375750.758340,-204,636,-16496,nan,0.000000
2,4,9,0,5643647,85581798,-3981300807298398235,1361375750.758340,-164,600,-16532,nan,0.000000
2,4,9,0,5643647,85581798,-3981300807298395614,1361375750.758340,-152,628,-16536,nan,0.000000
1,5,9,0,31922,85650078,8717816680400203000,1361375750.758877,20944,3444,-2880,nan,0.000000
1,5,9,0,31922,85650078,8717816680400205621,1361375750.758877,14108,3028,-3592,nan,0.000000
2,5,10,0,31922,85650109,8717816680400208242,1361375750.760025,13732,2032,-1448,nan,0.000000
2,5,10,0,31922,85650109,8717816680400210863,1361375750.760025,15820,3456,-364,nan,0.000000
2,5,10,0,31922,85650109,8717816680400213484,1361375750.760025,14872,2780,392,nan,0.000000
2,5,10,0,31922,85650109,8717816680400216105,1361375750.760025,13892,3128,224,nan,0.000000
2,5,10,0,31922,85650109,8717816680400218726,1361375750.760025,13980,3412,1332,nan,0.000000
2,5,11,0,31922,85650142,8717816680400221347,1361375750.761329,15348,3740,1420,nan,0.000000
2,5,11,0,31922,85650142,8717816680400223968,1361375750.761329,17004,2908,2160,nan,0.000000
2,5,11,0,31922,85650142,8717816680400226589,1361375750.761329,18960,5384,1820,nan,0.000000
2,5,11,0,31922,85650142,8717816680400229210,1361375750.761329,19852,2956,-3316,nan,0.000000
2,5,11,0,31922,85650142,8717816680400231831,1361375750.761329,13900,2212,-2384,nan,0.000000
2,5,12,0,31922,85650173,8717816680400234452,1361375750.762315,15428,1524,-2496,nan,0.000000
2,5,12,0,31922,85650173,8717816680400237073,1361375750.762315,13780,4136,-1508,nan,0.000000
2,5,12,0,31922,85650173,8717816680400239694,1361375750.762315,14712,2576,-1412,nan,0.000000
2,5,12,0,31922,85650173,8717816680400242315,1361375750.762315,14416,4656,-896,nan,0.000000
2,5,12,0,31922,85650173,8717816680400244936,1361375750.762315,15572,3996,-1360,nan,0.000000
2,5,13,0,31922,85650206,8717816680400247557,1361375750.763023,15384,5656,-1184,nan,0.000000
2,5,13,0,31922,85650206,8717816680400250178,1361375750.763023,15196,6948,244,nan,0.000000
2,5,13,0,31922,85650206,8717816680400252799,1361375750.763023,17744,7864,-912,nan,0.000000
2,5,13,0,31922,85650206,8717816680400255420,1361375750.763023,20048,1008,-4808,nan,0.000000
2,5,13,0,31922,85650206,8717816680400258041,1361375750.763023,14720,1064,-2400,nan,0.000000
2,5,14,0,31922,85650237,8717816680400260662,1361375750.763998,16220,3516,-2024,nan,0.000000
2,5,14,0,31922,85650237,8717816680400263283,1361375750.763998,13876,2524,-756,nan,0.000000
2,5,14,0,31922,85650237,8717816680400265904,1361375750.763998,14284,3400,-464,nan,0.000000
2,5,14,0,31922,85650237,8717816680400268525,1361375750.763998,14960,2308,-396,nan,0.000000
2,5,14,0,31922,85650237,8717816680400271146,1361375750.763998,14944,3288,1076,nan,0.000000
2,5,15,0,31922,85650270,8717816680400273767,1361375751.404376,16060,3388,976,nan,0.000000
2,5,15,0,31922,85650270,8717816680400276388,1361375751.404376,16100,7432,2144,nan,0.000000
2,5,15,0,31922,85650270,8717816680400279009,1361375751.404376,21368,2532,-3328,nan,0.000000
2,5,15,0,31922,85650270,8717816680400281630,1361375751.404376,16752,1048,-1176,nan,0.000000
2,5,15,0,31922,85650270,8717816680400284251,1361375751.404376,15652,-588,-1660,nan,0.000000
1,4,10,0,5733284,85671248,-9169443180989410113,1361375751.405504,-156,620,-16512,nan,0.000000
1,4,10,0,5733284,85671248,-9169443180989407492,1361375751.405504,-204,684,-16512,nan,0.000000
2,4,11,0,5733284,85671280,-9169443180989404871,1361375751.405982,-180,668,-16528,nan,0.000000
2,4,11,0,5733284,85671280,-9169443180989402250,1361375751.405982,-160,648,-16472,nan,0.000000
2,4,11,0,5733284,85671280,-9169443180989399629,1361375751.405982,-156,660,-16492,nan,0.000000
2,4,11,0,5733284,85671280,-9169443180989397008,1361375751.405982,-172,640,-16484,nan,0.000000
2,4,11,0,5733284,85671280,-9169443180989394387,1361375751.405982,-204,644,-16476,nan,0.000000
2,4,12,0,5733284,85671312,-9169443180989391766,1361375751.406493,-132,640,-16484,nan,0.000000
2,4,12,0,5733284,85671312,-9169443180989389145,1361375751.406493,-188,612,-16464,nan,0.000000
2,4,12,0,5733284,85671312,-9169443180989386524,1361375751.406493,-212,652,-16500,nan,0.000000
2,4,12,0,5733284,85671312,-9169443180989383903,1361375751.406493,-192,624,-16468,nan,0.000000
2,4,12,0,5733284,85671312,-9169443180989381282,1361375751.406493,-176,624,-16512,nan,0.000000
2,4,13,0,5733284,85671344,-9169443180989378661,1361375751.408030,-152,660,-16452,nan,0.000000
2,4,13,0,5733284,85671344,-9169443180989376040,1361375751.408030,-152,604,-16452,nan,0.000000
2,4,13,0,5733284,85671344,-9169443180989373419,1361375751.408030,-140,648,-16496,nan,0.000000
2,4,13,0,5733284,85671344,-9169443180989370798,1361375751.408030,-164,688,-16540,nan,0.000000
2,4,13,0,5733284,85671344,-9169443180989368177,1361375751.408030,-152,632,-16472,nan,0.000000
2,4,14,0,5733284,85671376,-9169443180989365556,1361375751.408932,-180,636,-16472,nan,0.000000
2,4,14,0,5733284,85671376,-9169443180989362935,1361375751.408932,-224,624,-16484,nan,0.000000
2,4,14,0,5733284,85671376,-9169443180989360314,1361375751.408932,-144,676,-16460,nan,0.000000
2,4,14,0,5733284,85671376,-9169443180989357693,1361375751.408932,-132,628,-16508,nan,0.000000
2,4,14,0,5733284,85671376,-9169443180989355072,1361375751.408932,-168,668,-16404,nan,0.000000
2,4,15,0,5733284,85671408,-9169443180989352451,1361375751.410026,-208,628,-16440,nan,0.000000
2,4,15,0,5733284,85671408,-9169443180989349830,1361375751.410026,-188,640,-16508,nan,0.000000
2,4,15,0,5733284,85671408,-9169443180989347209,1361375751.410026,-156,652,-16520,nan,0.000000
2,4,15,0,5733284,85671408,-9169443180989344588,1361375751.410026,-180,692,-16484,nan,0.000000
2,4,15,0,5733284,85671408,-9169443180989341967,1361375751.410026,-168,660,-16544,nan,0.000000
2,4,0,0,5733284,85671440,-9169443180989339346,1361375753.240118,-140,700,-16432,nan,0.000000
2,4,0,0,5733284,85671440,-9169443180989336725,1361375753.240118,-184,664,-16512,nan,0.000000
2,4,0,0,5733284,85671440,-9169443180989334104,1361375753.240118,-140,664,-16464,nan,0.000000
2,4,0,0,5733284,85671440,-9169443180989331483,1361375753.240118,-216,612,-16480,nan,0.000000
2,4,0,0,5733284,85671440,-9169443180989328862,1361375753.240118,-184,664,-16476,nan,0.000000
1,5,0,0,113241,85731401,6919789751931162627,1361375753.240719,14528,2960,-1676,nan,0.000000
1,5,0,0,113241,85731401,6919789751931165248,1361375753.240719,14832,4788,28,nan,0.000000
2,5,1,0,113241,85731432,6919789751931167869,1361375753.241932,15104,3484,316,nan,0.000000
2,5,1,0,113241,85731432,6919789751931170490,1361375753.241932,14460,5848,-152,nan,0.000000
2,5,1,0,113241,85731432,6919789751931173111,1361375753.241932,17460,6296,-160,nan,0.000000
2,5,1,0,113241,85731432,6919789751931175732,1361375753.241932,22408,-748,-1772,nan,0.000000
2,5,1,0,113241,85731432,6919789751931178353,1361375753.241932,15364,1316,-1616,nan,0.000000
2,5,2,0,113241,85731465,6919789751931180974,1361375753.244057,15360,2388,-80,nan,0.000000
2,5,2,0,113241,85731465,6919789751931183595,1361375753.244057,13208,2408,-4,nan,0.000000
2,5,2,0,113241,85731465,6919789751931186216,1361375753.244057,14248,2868,704,nan,0.000000
2,5,2,0,113241,85731465,6919789751931188837,1361375753.244057,14540,3700,1660,nan,0.000000
2,5,2,0,113241,85731465,6919789751931191458,1361375753.244057,14456,4124,1856,nan,0.000000
2,5,3,0,113241,85731496,6919789751931194079,1361375753.245054,16580,1448,1668,nan,0.000000
2,5,3,0,113241,85731496,6919789751931196700,1361375753.245054,19584,8272,2332,nan,0.000000
2,5,3,0,113241,85731496,6919789751931199321,1361375753.245054,21152,-1424,-3132,nan,0.000000
2,5,3,0,113241,85731496,6919789751931201942,1361375753.245054,15184,2520,-2332,nan,0.000000
2,5,3,0,113241,85731496,6919789751931204563,1361375753.245054,15792,-1128,-2260,nan,0.000000
2,5,4,0,113241,85731529,6919789751931207184,1361375753.245734,13020,3456,-1960,nan,0.000000
2,5,4,0,113241,85731529,6919789751931209805,1361375753.245734,14348,3188,-1732,nan,0.000000
2,5,4,0,113241,85731529,6919789751931212426,1361375753.245734,14756,4436,-700,nan,0.000000
2,5,4,0,113241,85731529,6919789751931215047,1361375753.245734,14500,4876,-148,nan,0.000000
2,5,4,0,113241,85731529,6919789751931217668,1361375753.245734,14664,5416,-1508,nan,0.000000
2,5,5,0,113241,85731560,6919789751931220289,1361375753.246585,17916,3600,308,nan,0.000000
2,5,5,0,113241,85731560,6919789751931222910,1361375753.246585,22052,3700,-1924,nan,0.000000
2,5,5,0,113241,85731560,6919789751931225531,1361375753.246585,16652,-1948,-4432,nan,0.000000
2,5,5,0,113241,85731560,6919789751931228152,1361375753.246585,14908,3568,-1668,nan,0.000000
2,5,5,0,113241,85731560,6919789751931230773,1361375753.246585,13832,1144,-1212,nan,0.000000
2,5,6,0,113241,85731592,6919789751931233394,1361375754.140223,14556,2736,276,nan,0.000000
2,5,6,0,113241,85731592,6919789751931236015,1361375754.140223,14124,2952,856,nan,0.000000
2,5,6,0,113241,85731592,6919789751931238636,1361375754.140223,13808,4192,1476,nan,0.000000
2,5,6,0,113241,85731592,6919789751931241257,1361375754.140223,15172,2936,632,nan,0.000000
2,5,6,0,113241,85731592,6919789751931243878,1361375754.140223,17844,3620,2260,nan,0.000000
1,4,1,0,5822920,85760889,-9169443180720959297,1361375754.141405,-184,640,-16484,nan,0.000000
1,4,1,0,5822920,85760889,-9169443180720956676,1361375754.141405,-212,640,-16492,nan,0.000000
2,4,2,0,5822920,85760921,-9169443180720954055,1361375754.141905,-184,668,-16472,nan,0.000000
2,4,2,0,5822920,85760921,-9169443180720951434,1361375754.141905,-176,648,-16452,nan,0.000000
2,4,2,0,5822920,85760921,-9169443180720948813,1361375754.141905,-136,632,-16472,nan,0.000000
2,4,2,0,5822920,85760921,-9169443180720946192,1361375754.141905,-176,684,-16464,nan,0.000000
2,4,2,0,5822920,85760921,-9169443180720943571,1361375754.141905,-192,640,-16468,nan,0.000000
2,4,3,0,5822920,85760953,-9169443180720940950,1361375754.142633,-192,624,-16528,nan,0.000000
2,4,3,0,5822920,85760953,-9169443180720938329,1361375754.142633,-172,624,-16484,nan,0.000000
2,4,3,0,5822920,85760953,-9169443180720935708,1361375754.142633,-140,612,-16504,nan,0.000000
2,4,3,0,5822920,85760953,-9169443180720933087,1361375754.142633,-168,660,-16468,nan,0.000000
2,4,3,0,5822920,85760953,-9169443180720930466,1361375754.142633,-192,632,-16488,nan,0.000000
2,4,4,0,5822920,85760985,-9169443180720927845,1361375754.144038,-144,624,-16512,nan,0.000000
2,4,4,0,5822920,85760985,-9169443180720925224,1361375754.144038,-188,672,-16520,nan,0.000000
2,4,4,0,5822920,85760985,-9169443180720922603,1361375754.144038,-208,644,-16528,nan,0.000000
2,4,4,0,5822920,85760985,-9169443180720919982,1361375754.144038,-200,652,-16448,nan,0.000000
2,4,4,0,5822920,85760985,-9169443180720917361,1361375754.144038,-164,644,-16456,nan,0.000000
2,4,5,0,5822920,85761017,-9169443180720914740,1361375754.144491,-128,660,-16504,nan,0.000000
2,4,5,0,5822920,85761017,-9169443180720912119,1361375754.144491,-116,624,-16464,nan,0.000000
2,4,5,0,5822920,85761017,-9169443180720909498,1361375754.144491,-184,640,-16488,nan,0.000000
2,4,5,0,5822920,85761017,-9169443180720906877,1361375754.144491,-132,644,-16492,nan,0.000000
2,4,5,0,5822920,85761017,-9169443180720904256,1361375754.144491,-160,668,-16512,nan,0.000000
2,4,6,0,5822920,85761049,-9169443180720901635,1361375754.145871,-208,644,-16432,nan,0.000000
2,4,6,0,5822920,85761049,-9169443180720899014,1361375754.145871,-172,668,-16456,nan,0.000000
2,4,6,0,5822920,85761049,-9169443180720896393,1361375754.145871,-204,664,-16488,nan,0.000000
2,4,6,0,5822920,85761049,-9169443180720893772,1361375754.145871,-188,636,-16500,nan,0.000000
2,4,6,0,5822920,85761049,-9169443180720891151,1361375754.145871,-176,644,-16512,nan,0.000000
2,4,7,0,5822920,85761081,-9169443180720888530,1361375755.722253,-164,628,-16484,nan,0.000000
2,4,7,0,5822920,85761081,-9169443180720885909,1361375755.722253,-204,680,-16448,nan,0.000000
2,4,7,0,5822920,85761081,-9169443180720883288,1361375755.722253,-164,664,-16468,nan,0.000000
2,4,7,0,5822920,85761081,-9169443180720880667,1361375755.722253,-188,676,-16452,nan,0.000000
2,4,7,0,5822920,85761081,-9169443180720878046,1361375755.722253,-144,596,-16520,nan,0.000000
1,5,7,0,194559,85812724,6342062281835615233,1361375755.722852,19944,1688,-5048,nan,0.000000
1,5,7,0,194559,85812724,6342062281835617854,1361375755.722852,13700,856,-1892,nan,0.000000
2,5,8,0,194559,85812756,6342062281835620475,1361375755.723894,14152,1928,-2060,nan,0.000000
2,5,8,0,194559,85812756,6342062281835623096,1361375755.723894,13852,3228,-1824,nan,0.000000
2,5,8,0,194559,85812756,6342062281835625717,1361375755.723894,14848,3064,-1676,nan,0.000000
2,5,8,0,194559,85812756,6342062281835628338,1361375755.723894,15280,2968,-776,nan,0.000000
2,5,8,0,194559,85812756,6342062281835630959,1361375755.723894,14868,4036,-1108,nan,0.000000
2,5,9,0,194559,85812788,6342062281835633580,1361375755.724490,14604,5060,-408,nan,0.000000
2,5,9,0,194559,85812788,6342062281835636201,1361375755.724490,15732,5636,448,nan,0.000000
2,5,9,0,194559,85812788,6342062281835638822,1361375755.724490,22536,4132,-336,nan,0.000000
2,5,9,0,194559,85812788,6342062281835641443,1361375755.724490,17784,-1824,-4208,nan,0.000000
2,5,9,0,194559,85812788,6342062281835644064,1361375755.724490,15100,3656,-728,nan,0.000000
2,5,10,0,194559,85812820,6342062281835646685,1361375755.725841,14572,1244,-156,nan,0.000000
2,5,10,0,194559,85812820,6342062281835649306,1361375755.725841,14528,1628,212,nan,0.000000
2,5,10,0,194559,85812820,6342062281835651927,1361375755.725841,14712,2652,732,nan,0.000000
2,5,10,0,194559,85812820,6342062281835654548,1361375755.725841,15172,2412,836,nan,0.000000
2,5,10,0,194559,85812820,6342062281835657169,1361375755.725841,15948,3000,996,nan,0.000000
2,5,11,0,194559,85812852,6342062281835659790,1361375755.730057,15564,3844,1528,nan,0.000000
2,5,11,0,194559,85812852,6342062281835662411,1361375755.730057,16144,4508,880,nan,0.000000
2,5,11,0,194559,85812852,6342062281835665032,1361375755.730057,21780,-132,-2304,nan,0.000000
2,5,11,0,194559,85812852,6342062281835667653,1361375755.730057,13064,3128,104,nan,0.000000
2,5,11,0,194559,85812852,6342062281835670274,1361375755.730057,15572,1396,-3104,nan,0.000000
2,5,12,0,194559,85812884,6342062281835672895,1361375755.732874,17192,2432,-1968,nan,0.000000
2,5,12,0,194559,85812884,6342062281835675516,1361375755.732874,14556,2436,-2464,nan,0.000000
2,5,12,0,194559,85812884,6342062281835678137,1361375755.732874,15668,4124,-2700,nan,0.000000
2,5,12,0,194559,85812884,6342062281835680758,1361375755.732874,15668,3656,-1996,nan,0.000000
2,5,12,0,194559,85812884,6342062281835683379,1361375755.732874,15216,3984,-2372,nan,0.000000
2,5,13,0,194559,85812916,6342062281835686000,1361375756.876174,14376,3884,-3576,nan,0.000000
2,5,13,0,194559,85812916,6342062281835688621,1361375756.876174,17396,2364,-1044,nan,0.000000
2,5,13,0,194559,85812916,6342062281835691242,1361375756.876174,17560,1208,-1228,nan,0.000000
2,5,13,0,194559,85812916,6342062281835693863,1361375756.876174,15704,1464,456,nan,0.000000
2,5,13,0,194559,85812916,6342062281835696484,1361375756.876174,15780,248,636,nan,0.000000
1,4,8,0,5912558,85850533,-4557739570443084609,1361375756.877261,-152,684,-16524,nan,0.000000
1,4,8,0,5912558,85850533,-4557739570443081988,1361375756.877261,-188,680,-16488,nan,0.000000
2,4,9,0,5912558,85850565,-4557739570443079367,1361375756.877815,-164,616,-16480,nan,0.000000
2,4,9,0,5912558,85850565,-4557739570443076746,1361375756.877815,-192,656,-16488,nan,0.000000
2,4,9,0,5912558,85850565,-4557739570443074125,1361375756.877815,-176,640,-16468,nan,0.000000
2,4,9,0,5912558,85850565,-4557739570443071504,1361375756.877815,-164,664,-16524,nan,0.000000
2,4,9,0,5912558,85850565,-4557739570443068883,1361375756.877815,-236,640,-16484,nan,0.000000
2,4,10,0,5912558,85850597,-4557739570443066262,1361375756.878433,-120,620,-16512,nan,0.000000
2,4,10,0,5912558,85850597,-4557739570443063641,1361375756.878433,-188,640,-16488,nan,0.000000
2,4,10,0,5912558,85850597,-4557739570443061020,1361375756.878433,-192,660,-16508,nan,0.000000
2,4,10,0,5912558,85850597,-4557739570443058399,1361375756.878433,-184,616,-16452,nan,0.000000
2,4,10,0,5912558,85850597,-4557739570443055778,1361375756.878433,-168,672,-16452,nan,0.000000
2,4,11,0,5912558,85850629,-4557739570443053157,1361375756.879834,-200,644,-16496,nan,0.000000
2,4,11,0,5912558,85850629,-4557739570443050536,1361375756.879834,-188,608,-16500,nan,0.000000
2,4,11,0,5912558,85850629,-4557739570443047915,1361375756.879834,-172,660,-16488,nan,0.000000
2,4,11,0,5912558,85850629,-4557739570443045294,1361375756.879834,-172,668,-16496,nan,0.000000
2,4,11,0,5912558,85850629,-4557739570443042673,1361375756.879834,-192,676,-16488,nan,0.000000
2,4,12,0,5912558,85850661,-4557739570443040052,1361375756.880186,-164,620,-16472,nan,0.000000
2,4,12,0,5912558,85850661,-4557739570443037431,1361375756.880186,-144,672,-16488,nan,0.000000
2,4,12,0,5912558,85850661,-4557739570443034810,1361375756.880186,-208,628,-16500,nan,0.000000
2,4,12,0,5912558,85850661,-4557739570443032189,1361375756.880186,-128,628,-16452,nan,0.000000
2,4,12,0,5912558,85850661,-4557739570443029568,1361375756.880186,-156,636,-16452,nan,0.000000
2,4,13,0,5912558,85850693,-4557739570443026947,1361375756.882007,-168,672,-16468,nan,0.000000
2,4,13,0,5912558,85850693,-4557739570443024326,1361375756.882007,-196,660,-16476,nan,0.000000
2,4,13,0,5912558,85850693,-4557739570443021705,1361375756.882007,-148,640,-16512,nan,0.000000
2,4,13,0,5912558,85850693,-4557739570443019084,1361375756.882007,-152,656,-16524,nan,0.000000
2,4,13,0,5912558,85850693,-4557739570443016463,1361375756.882007,-192,640,-16468,nan,0.000000
2,4,14,0,5912558,85850725,-4557739570443013842,1361375758.233910,-188,652,-16504,nan,0.000000
2,4,14,0,5912558,85850725,-4557739570443011221,1361375758.233910,-200,644,-16468,nan,0.000000
2,4,14,0,5912558,85850725,-4557739570443008600,1361375758.233910,-188,616,-16488,nan,0.000000
2,4,14,0,5912558,85850725,-4557739570443005979,1361375758.233910,-160,664,-16488,nan,0.000000
2,4,14,0,5912558,85850725,-4557739570443003358,1361375758.233910,-168,628,-16468,nan,0.000000
1,5,14,0,275878,85895045,-1370435648153777934,1361375758.234516,15692,1548,1128,nan,0.000000
1,5,14,0,275878,85895045,-1370435648153775313,1361375758.234516,15824,1048,1188,nan,0.000000
2,5,15,0,275878,85895077,-1370435648153772692,1361375758.235809,16064,784,2076,nan,0.000000
2,5,15,0,275878,85895077,-1370435648153770071,1361375758.235809,16344,-684,2504,nan,0.000000
2,5,15,0,275878,85895077,-1370435648153767450,1361375758.235809,17376,1076,816,nan,0.000000
2,5,15,0,275878,85895077,-1370435648153764829,1361375758.235809,15640,752,104,nan,0.000000
2,5,15,0,275878,85895077,-1370435648153762208,1361375758.235809,15392,4532,-1088,nan,0.000000
2,5,0,0,275878,85895109,-1370435648153759587,1361375758.236500,15984,4020,-3100,nan,0.000000
2,5,0,0,275878,85895109,-1370435648153756966,1361375758.236500,14420,5168,-608,nan,0.000000
2,5,0,0,275878,85895109,-1370435648153754345,1361375758.236500,14848,3476,-1348,nan,0.000000
2,5,0,0,275878,85895109,-1370435648153751724,1361375758.236500,15204,4352,-1016,nan,0.000000
2,5,0,0,275878,85895109,-1370435648153749103,1361375758.236500,15212,4856,-800,nan,0.000000
2,5,1,0,275878,85895141,-1370435648153746482,1361375758.237823,15556,5356,-580,nan,0.000000
2,5,1,0,275878,85895141,-1370435648153743861,1361375758.237823,17432,7136,-432,nan,0.000000
2,5,1,0,275878,85895141,-1370435648153741240,1361375758.237823,21520,3844,-812,nan,0.000000
2,5,1,0,275878,85895141,-1370435648153738619,1361375758.237823,17236,-656,-4448,nan,0.000000
2,5,1,0,275878,85895141,-1370435648153735998,1361375758.237823,15348,1492,-1308,nan,0.000000
2,5,2,0,275878,85895173,-1370435648153733377,1361375758.238856,13860,1836,-1336,nan,0.000000
2,5,2,0,275878,85895173,-1370435648153730756,1361375758.238856,13824,2060,84,nan,0.000000
2,5,2,0,275878,85895173,-1370435648153728135,1361375758.238856,14508,2216,988,nan,0.000000
2,5,2,0,275878,85895173,-1370435648153725514,1361375758.238856,14300,3668,1724,nan,0.000000
2,5,2,0,275878,85895173,-1370435648153722893,1361375758.238856,16100,2796,1436,nan,0.000000
2,5,3,0,275878,85895205,-1370435648153720272,1361375758.239779,16976,2096,2228,nan,0.000000
2,5,3,0,275878,85895205,-1370435648153717651,1361375758.239779,22836,5556,-4444,nan,0.000000
2,5,3,0,275878,85895205,-1370435648153715030,1361375758.239779,16144,3480,-4716,nan,0.000000
2,5,3,0,275878,85895205,-1370435648153712409,1361375758.239779,13544,2840,-3284,nan,0.000000
2,5,3,0,275878,85895205,-1370435648153709788,1361375758.239779,13200,3364,-1596,nan,0.000000
2,5,4,0,275878,85895237,-1370435648153707167,1361375759.611785,13520,2732,-3372,nan,0.000000
2,5,4,0,275878,85895237,-1370435648153704546,1361375759.611785,14420,3520,-1964,nan,0.000000
2,5,4,0,275878,85895237,-1370435648153701925,1361375759.611785,14004,4112,-1308,nan,0.000000
2,5,4,0,275878,85895237,-1370435648153699304,1361375759.611785,14992,5352,-1156,nan,0.000000
2,5,4,0,275878,85895237,-1370435648153696683,1361375759.611785,17424,6188,-424,nan,0.000000
1,4,15,0,6002194,85940175,-5998931033553139521,1361375759.612481,-196,612,-16476,nan,0.000000
1,4,15,0,6002194,85940175,-5998931033553136900,1361375759.612481,-168,640,-16464,nan,0.000000
2,4,0,0,6002194,85940207,-5998931033553134279,1361375759.613885,-164,628,-16508,nan,0.000000
2,4,0,0,6002194,85940207,-5998931033553131658,1361375759.613885,-176,656,-16472,nan,0.000000
2,4,0,0,6002194,85940207,-5998931033553129037,1361375759.613885,-156,668,-16508,nan,0.000000
2,4,0,0,6002194,85940207,-5998931033553126416,1361375759.613885,-200,612,-16476,nan,0.000000
2,4,0,0,6002194,85940207,-5998931033553123795,1361375759.613885,-156,632,-16512,nan,0.000000
2,4,1,0,6002194,85940239,-5998931033553121174,1361375759.614326,-152,640,-16504,nan,0.000000
2,4,1,0,6002194,85940239,-5998931033553118553,1361375759.614326,-172,668,-16476,nan,0.000000
2,4,1,0,6002194,85940239,-5998931033553115932,1361375759.614326,-176,632,-16520,nan,0.000000
2,4,1,0,6002194,85940239,-5998931033553113311,1361375759.614326,-136,624,-16480,nan,0.000000
2,4,1,0,6002194,85940239,-5998931033553110690,1361375759.614326,-124,632,-16508,nan,0.000000
2,4,2,0,6002194,85940271,-5998931033553108069,1361375759.614715,-108,656,-16476,nan,0.000000
2,4,2,0,6002194,85940271,-5998931033553105448,1361375759.614715,-200,652,-16516,nan,0.000000
2,4,2,0,6002194,85940271,-5998931033553102827,1361375759.614715,-160,588,-16532,nan,0.000000
2,4,2,0,6002194,85940271,-5998931033553100206,1361375759.614715,-208,628,-16496,nan,0.000000
2,4,2,0,6002194,85940271,-5998931033553097585,1361375759.614715,-196,636,-16500,nan,0.000000
2,4,3,0,6002194,85940302,-5998931033553094964,1361375759.615727,-196,620,-16456,nan,0.000000
2,4,3,0,6002194,85940302,-5998931033553092343,1361375759.615727,-196,644,-16484,nan,0.000000
2,4,3,0,6002194,85940302,-5998931033553089722,1361375759.615727,-180,664,-16464,nan,0.000000
2,4,3,0,6002194,85940302,-5998931033553087101,1361375759.615727,-188,644,-16492,nan,0.000000
2,4,3,0,6002194,85940302,-5998931033553084480,1361375759.615727,-156,648,-16472,nan,0.000000
2,4,4,0,6002194,85940335,-5998931033553081859,1361375759.616029,-188,640,-16472,nan,0.000000
2,4,4,0,6002194,85940335,-5998931033553079238,1361375759.616029,-196,584,-16504,nan,0.000000
2,4,4,0,6002194,85940335,-5998931033553076617,1361375759.616029,-184,564,-16496,nan,0.000000
2,4,4,0,6002194,85940335,-5998931033553073996,1361375759.616029,-224,684,-16504,nan,0.000000
2,4,4,0,6002194,85940335,-5998931033553071375,1361375759.616029,-172,648,-16500,nan,0.000000
2,4,5,0,6002194,85940367,-5998931033553068754,1361375760.685715,-160,680,-16536,nan,0.000000
2,4,5,0,6002194,85940367,-5998931033553066133,1361375760.685715,-184,640,-16504,nan,0.000000
2,4,5,0,6002194,85940367,-5998931033553063512,1361375760.685715,-204,628,-16492,nan,0.000000
2,4,5,0,6002194,85940367,-5998931033553060891,1361375760.685715,-160,648,-16492,nan,0.000000
2,4,5,0,6002194,85940367,-5998931033553058270,1361375760.685715,-128,636,-16468,nan,0.000000
1,5,5,0,357196,85975368,6122854856890307826,1361375760.686077,16980,-3824,-5136,nan,0.000000
1,5,5,0,357196,85975368,6122854856890310447,1361375760.686077,15268,6812,-2988,nan,0.000000
2,5,6,0,357196,85975399,6122854856890313068,1361375760.687693,13952,952,-1064,nan,0.000000
2,5,6,0,357196,85975399,6122854856890315689,1361375760.687693,13932,2820,-1108,nan,0.000000
